,BLOCK,CHOICE_RT_1,CHOICE_RT_2,CONF_1,CONF_2,CONF_RT_1,CONF_RT_2,CORRECT,CORRECT_2,Chosen_Nr_1,Chosen_Nr_2,Correct_Count,DOTS_LEFT,DOTS_RIGHT,Dot_Diff,Error_Count,GSF_First_Presentation,GSF_Second_Presentation,LEFT_MOST_DOTS,LEFT_PRESENTATION_TIME,Left_IA_First_Dwell_Time,Left_IA_Second_Dwell_Time,PICKED_LEFT_1,PICKED_LEFT_2,Participant,RIGHT_PRESENTATION_TIME,Right_IA_First_Dwell_Time,Right_IA_Second_Dwell_Time,TOTAL_POINTS,TRIAL_POINTS,Unchosen_Nr_1,Unchosen_Nr_2,Which_First,ZConf1,ZConf1ALL,ZConf2,ZConf2ALL,ZDot_Diff,ZRT,sampling_time,session,type,Internal_Saccades_First,Internal_Saccades_Second
1,0,1660,1888,56.7,68.67,951,227,1,1,52,52,1,52,50,2,0,1,2,True,,678,1182,True,True,1,,830,920,260,162,50,50,Right,0.973639092,0.626890261,1.6238210530000001,1.230338967,-0.641764291,-0.9149252929999999,3000.0,Free,"Correct, no change",5,8
3,0,2721,3609,67.68,69.9,1377,499,-1,-1,49,49,0,49,50,1,1,1,1,False,,566,1162,True,True,1,,672,950,392,31,50,50,Right,2.037392931,1.389619057,1.722514778,1.3015128759999999,-1.3813585030000002,-0.127152836,3000.0,Free,"Incorrect, no change",3,8
8,0,2586,2190,56.2,59.97,952,1351,1,1,53,53,1,53,50,3,0,1,1,True,,874,940,True,True,1,,742,1305,942,157,50,50,Left,0.9251985709999999,0.59215762,0.925743488,0.726913757,0.09782992199999999,-0.227387786,3000.0,Free,"Correct, no change",6,8
10,0,1892,2393,49.67,36.28,636,1652,-1,-1,48,48,0,48,50,2,1,1,1,False,,911,716,True,True,1,,644,1586,1133,56,50,50,Right,0.292565368,0.13854933,-0.9751136999999999,-0.643907302,-0.641764291,-0.7426696759999999,3000.0,Free,"Incorrect, no change",4,8
13,0,2534,1852,31.07,53.48,2362,1396,1,1,50,50,1,48,50,2,0,2,1,False,,1090,1488,False,False,1,,620,1209,1515,141,48,48,Right,-1.5094220090000001,-1.153504914,0.404993671,0.351370124,-0.641764291,-0.265996804,3000.0,Free,"Correct, no change",5,8
16,0,6576,2903,56.45,46.95,762,1701,-1,-1,50,50,1,50,51,1,1,1,2,False,,763,1064,True,True,1,,822,1294,1818,47,51,51,Right,0.9494188309999999,0.6095239410000001,-0.118965697,-0.026488108,-1.3813585030000002,2.73511184,3000.0,Free,"Incorrect, no change",4,7
19,0,1630,2301,44.97,48.07,2641,1039,1,1,50,50,2,50,47,3,0,1,2,True,,749,1340,True,True,1,,708,1100,2217,146,47,47,Right,-0.162775528,-0.187937495,-0.02909824,0.038320653999999996,0.09782992199999999,-0.9371997259999999,3000.0,Free,"Correct, no change",5,7
23,1,1662,2404,39.63,52.1,840,1190,-1,1,50,52,0,52,50,2,1,1,2,True,,999,1257,False,True,1,,857,954,2718,106,52,50,Left,-0.6801202909999999,-0.558882101,0.294264126,0.27151647,-0.641764291,-0.913440331,3000.0,Free,Incorrect to correct,6,7
26,1,3278,2555,43.13,40.88,589,1844,1,1,50,50,1,48,50,2,0,2,1,False,,911,802,False,False,1,,800,1518,3118,141,48,48,Right,-0.341036645,-0.31575361399999996,-0.606015217,-0.377728456,-0.641764291,0.286409142,3000.0,Free,"Correct, no change",5,10
27,1,1247,2160,46.5,38.88,2942,2348,1,1,52,52,2,50,52,2,0,2,1,False,,742,1468,False,False,1,,784,814,3260,142,50,50,Left,-0.014547533999999999,-0.081655614,-0.766492818,-0.493458389,-0.641764291,-1.221569991,3000.0,Free,"Correct, no change",4,8
33,1,5917,25245,37.22,48.5,614,220,-1,-1,50,50,0,50,50,0,1,1,1,False,,872,155,False,False,1,,468,1970,3794,56,50,50,Right,-0.913603602,-0.72629343,0.0054044440000000004,0.06320259,-2.120952716,2.245816789,3000.0,Free,"Incorrect, no change",3,3
36,1,2096,39883,36.17,46.87,779,219,1,1,50,50,1,48,50,2,0,2,3,False,,821,1194,False,False,1,,678,1186,4138,141,48,48,Left,-1.0153286959999999,-0.799231976,-0.125384801,-0.031117306,-0.641764291,-0.59120353,3000.0,Free,"Correct, no change",5,7
39,1,4894,3119,36.53,37.52,730,1945,-1,1,50,53,1,53,50,3,1,2,1,True,,663,482,False,True,1,,888,1500,4391,99,53,50,Left,-0.980451521,-0.774224475,-0.875617587,-0.572154744,0.09782992199999999,1.486258614,3000.0,Free,Incorrect to correct,4,5
41,2,1121,1969,59.13,61.9,1205,2394,1,1,50,50,2,50,46,4,0,1,2,True,,462,1441,True,True,1,,810,730,4701,159,46,46,Right,1.209060023,0.795690896,1.080604373,0.838593143,0.837424135,-1.3151226109999998,3000.0,Free,"Correct, no change",3,6
42,2,2251,5349,63.55,66.95,1912,895,1,1,50,50,1,50,47,3,0,1,3,True,,1211,930,True,True,1,,752,1121,4865,164,47,47,Left,1.637274228,1.102727442,1.485810316,1.1308112240000001,0.09782992199999999,-0.476118958,3000.0,Free,"Correct, no change",2,4
45,2,5276,2141,41.92,43.97,1758,539,1,1,50,50,2,48,50,2,0,2,2,False,,889,850,False,False,1,,726,1284,5299,141,48,48,Left,-0.458262706,-0.399806605,-0.35807732299999995,-0.19892570899999998,-0.641764291,1.7698863980000001,3000.0,Free,"Correct, no change",4,6
47,2,2774,3949,37.78,33.82,1246,4126,-1,-1,49,49,1,50,49,1,1,1,2,True,,947,1056,False,False,1,,624,1591,5510,64,50,50,Right,-0.8593502190000001,-0.687392872,-1.1725011490000001,-0.78625512,-1.3813585030000002,-0.087801338,3000.0,Free,"Incorrect, no change",5,9
48,2,1618,2240,50.15,64.42,328,1469,1,1,50,50,1,50,48,2,0,1,2,True,,794,1386,True,True,1,,802,904,5667,157,48,48,Right,0.33906826799999995,0.171892665,1.28280615,0.9844128590000001,-0.641764291,-0.9461094999999999,3000.0,Free,"Correct, no change",4,6
52,2,3991,2963,37.45,31.33,3116,979,-1,-1,50,50,0,50,50,0,1,1,2,False,,794,1575,False,True,1,,866,1194,6145,65,50,50,Left,-0.891320962,-0.710316415,-1.3722957630000001,-0.930338887,-2.120952716,0.815798172,3000.0,Free,"Incorrect, no change",5,5
59,2,2557,6301,35.27,39.67,402,910,1,1,53,53,1,50,53,3,0,1,2,False,,664,1356,False,False,1,,748,1004,6776,136,50,50,Right,-1.102521633,-0.86175073,-0.7031041659999999,-0.447745065,0.09782992199999999,-0.248919738,3000.0,Free,"Correct, no change",4,7
60,2,1805,1696,61.58,47.13,2207,363,1,1,53,53,2,50,53,3,0,1,2,False,,928,1282,False,False,1,,708,1078,6929,153,50,50,Left,1.446418576,0.965880837,-0.104522713,-0.016072414,0.09782992199999999,-0.8072655320000001,3000.0,Free,"Correct, no change",4,8
69,3,1532,3442,36.13,45.57,1975,2097,1,1,50,50,1,47,50,3,0,1,2,False,,908,1012,False,False,1,,766,1242,7984,140,47,47,Left,-1.0192039370000001,-0.802010588,-0.229695242,-0.10634176199999999,0.09782992199999999,-1.009962875,3000.0,Free,"Correct, no change",4,6
71,3,3152,1809,43.2,69.6,483,2807,1,1,54,54,1,54,50,4,0,2,3,True,,791,627,True,True,1,,834,1514,8241,155,50,50,Left,-0.334254972,-0.310891044,1.698443138,1.2841533859999998,0.837424135,0.192856522,3000.0,Free,"Correct, no change",3,6
75,3,1551,2393,57.02,64.67,4652,2388,1,1,50,50,1,45,50,5,0,1,2,False,,872,1222,False,False,1,,796,1052,8709,160,45,45,Left,1.004641025,0.649119152,1.302865851,0.998879101,1.5770183480000002,-0.995855734,3000.0,Free,"Correct, no change",4,6
77,3,3783,8819,20.77,32.83,335,477,1,1,50,50,1,50,46,4,0,1,2,True,,766,902,True,True,1,,794,1579,8994,126,46,46,Right,-2.507296739,-1.8689973180000001,-1.251937562,-0.8435414370000001,0.837424135,0.661362102,3000.0,Free,"Correct, no change",4,7
78,3,5416,1874,50.87,35.3,1503,813,-1,1,46,50,1,46,50,4,1,1,1,False,,698,1142,True,False,1,,784,1292,9085,91,50,46,Right,0.40882261799999997,0.221907668,-1.0537477240000002,-0.70061497,0.837424135,1.8738337530000002,3000.0,Free,Incorrect to correct,4,7
82,3,2538,3736,54.5,64.62,1768,1757,1,1,50,50,2,50,44,6,0,1,3,True,,908,1334,True,True,1,,729,913,9641,159,44,44,Left,0.7605008000000001,0.474066641,1.298853911,0.995985852,2.316612561,-0.263026879,3000.0,Free,"Correct, no change",5,5
83,4,1553,2540,53.08,68.73,1099,3373,1,1,55,55,1,50,55,5,0,1,2,False,,602,912,False,False,1,,845,789,9801,160,50,50,Left,0.622929721,0.37542594100000004,1.628635381,1.233810865,1.5770183480000002,-0.994370772,3000.0,Free,"Correct, no change",5,5
87,4,4976,2415,28.58,43.05,548,1914,1,1,50,50,1,50,47,3,0,1,1,True,,812,948,True,True,1,,680,1258,10407,135,47,47,Right,-1.7506558030000001,-1.326473466,-0.431897019,-0.252161478,0.09782992199999999,1.547142065,3000.0,Free,"Correct, no change",6,6
89,4,2862,1790,45.2,61.07,990,1663,-1,1,50,54,0,54,50,4,1,1,2,True,,880,1516,False,True,1,,770,678,10622,107,54,50,Left,-0.140492889,-0.17196048100000003,1.0140061679999999,0.7905652209999999,0.837424135,-0.022463,3000.0,Free,Incorrect to correct,5,6
90,4,4703,3555,59.22,61.63,1778,1378,1,1,50,50,1,45,50,5,0,1,2,False,,853,1300,False,False,1,,660,1371,10781,159,45,45,Right,1.217779317,0.8019427720000001,1.0589398970000001,0.822969602,1.5770183480000002,1.344444722,3000.0,Free,"Correct, no change",6,9
91,4,2307,964,61.33,71.03,976,1273,1,1,50,50,2,50,45,5,0,1,1,True,,626,394,True,True,1,,596,760,10946,165,45,45,Right,1.422198315,0.948514517,1.8131846230000002,1.366900288,1.5770183480000002,-0.434540015,3000.0,Free,"Correct, no change",3,4
96,4,6641,1293,54.62,28.45,687,2584,1,-1,54,50,1,54,50,4,0,2,3,True,,874,1500,True,False,1,,609,949,11639,112,50,54,Right,0.772126525,0.482402475,-1.6033835090000002,-1.0969899909999998,0.837424135,2.783373112,3000.0,Free,Correct to incorrect,4,8
98,4,1836,3538,49.08,49.67,358,1133,1,1,50,50,1,50,47,3,0,2,2,True,,646,550,True,True,1,,704,1804,11945,148,47,47,Right,0.235405554,0.09756481300000001,0.099283841,0.130904601,0.09782992199999999,-0.784248618,3000.0,Free,"Correct, no change",1,5
104,5,1903,1622,43.13,57.68,1138,986,-1,-1,50,50,0,50,52,2,1,1,3,False,,1009,705,True,True,1,,520,1552,12646,49,52,52,Right,-0.341036645,-0.31575361399999996,0.741996634,0.594402984,-0.641764291,-0.734502384,3000.0,Free,"Incorrect, no change",4,6
105,5,1329,1272,47.78,68.53,363,1109,1,1,53,53,1,53,50,3,0,3,2,True,,1038,1356,True,True,1,,758,752,12803,157,50,50,Right,0.10946019900000001,0.007259946999999999,1.6125876209999999,1.222237872,0.09782992199999999,-1.16068654,3000.0,Free,"Correct, no change",2,6
108,5,3907,1530,41.27,57.67,821,994,1,1,50,50,2,50,46,4,0,1,2,True,,914,1369,True,True,1,,753,1070,13195,148,46,46,Left,-0.5212353829999999,-0.444959038,0.741194246,0.593824334,0.837424135,0.7534297590000001,3000.0,Free,"Correct, no change",4,6
109,5,4208,3012,30.13,45.42,623,1477,1,1,50,50,1,50,47,3,0,1,2,True,,1139,1049,True,True,1,,595,1226,13332,137,47,47,Left,-1.6004901880000002,-1.2188022790000002,-0.241731062,-0.115021507,0.09782992199999999,0.976916573,3000.0,Free,"Correct, no change",5,6
111,5,1968,5497,42.43,42.15,3326,996,-1,-1,48,48,0,48,50,2,1,2,2,False,,907,1105,True,True,1,,676,1564,13554,56,50,50,Right,-0.408853374,-0.36437931100000004,-0.50411194,-0.304239948,-0.641764291,-0.686241111,3000.0,Free,"Incorrect, no change",3,8
112,5,5070,8279,52.23,46.43,1052,926,1,1,53,53,1,50,53,3,0,1,3,False,,706,1406,False,False,1,,916,832,13703,149,50,50,Left,0.540580835,0.316380451,-0.160689873,-0.056577891,0.09782992199999999,1.6169352890000002,3000.0,Free,"Correct, no change",4,6
114,5,3724,2161,49.93,41.7,1098,1027,1,-1,50,48,1,50,48,2,0,1,2,True,,1163,900,True,False,1,,422,1505,13955,103,48,50,Right,0.317754439,0.156610303,-0.5402194,-0.33027918300000003,-0.641764291,0.617555716,3000.0,Free,Correct to incorrect,4,7
120,5,1678,1677,56.33,67.2,1130,1067,1,1,54,54,1,54,50,4,0,2,2,True,,916,1284,True,True,1,,581,852,14727,161,50,50,Right,0.937793106,0.601188107,1.505870016,1.145277466,0.837424135,-0.901560633,3000.0,Free,"Correct, no change",4,4
130,6,1969,1592,38.37,39.3,1587,471,1,1,50,50,1,50,48,2,0,1,2,True,,696,1377,True,True,1,,758,834,15952,138,48,48,Right,-0.8021904040000001,-0.646408356,-0.732792522,-0.46915510299999996,-0.641764291,-0.68549863,3000.0,Free,"Correct, no change",4,6
133,6,3179,3461,29.85,36.67,689,587,-1,-1,50,50,0,52,50,2,1,1,3,True,,1011,1030,False,False,1,,570,1180,16269,66,52,52,Right,-1.62761688,-1.238252558,-0.9438205679999999,-0.621339965,-0.641764291,0.212903512,3000.0,Free,"Incorrect, no change",3,6
134,6,3554,1890,40.07,40.02,1007,361,1,1,53,53,1,53,50,3,0,2,3,True,,760,741,True,True,1,,765,1394,16409,140,50,50,Right,-0.6374926329999999,-0.528317377,-0.675020585,-0.427492327,0.09782992199999999,0.491333928,3000.0,Free,"Correct, no change",2,6
137,6,3454,1626,41.63,40.53,2371,927,1,-1,50,48,2,48,50,2,0,2,2,False,,766,542,False,True,1,,733,1660,16807,99,48,50,Right,-0.48635820799999996,-0.41995153700000004,-0.634098797,-0.397981194,-0.641764291,0.417085817,3000.0,Free,Correct to incorrect,4,7
142,6,2211,1376,29.6,25.92,943,2926,-1,-1,47,47,1,50,47,3,1,1,2,True,,576,907,False,False,1,,1108,996,17274,72,50,50,Left,-1.65183714,-1.255618878,-1.806387675,-1.243388357,0.09782992199999999,-0.505818202,3000.0,Free,"Incorrect, no change",5,6
143,6,1778,1984,31.15,27.18,969,967,1,1,50,50,1,50,46,4,0,1,3,True,,738,1260,True,True,1,,904,1024,17402,128,46,46,Left,-1.501671526,-1.147947691,-1.7052867859999998,-1.1704784990000001,0.837424135,-0.827312522,3000.0,Free,"Correct, no change",3,4
146,7,1311,1572,42.08,54.0,791,1200,1,-1,50,46,1,46,50,4,0,2,3,False,,750,1152,False,True,1,,882,1027,17760,94,46,50,Left,-0.442761739,-0.38869216,0.446717848,0.381459906,0.837424135,-1.1740511999999999,3000.0,Free,Correct to incorrect,2,5
152,7,1497,2483,49.3,45.7,1020,2111,1,1,53,53,1,53,50,3,0,1,2,True,,1080,1484,True,True,1,,456,916,18571,146,50,50,Right,0.256719383,0.112847175,-0.21926419800000002,-0.09881931699999999,0.09782992199999999,-1.035949714,3000.0,Free,"Correct, no change",3,6
153,7,1781,1976,51.33,55.47,2201,658,1,1,53,53,2,50,53,3,0,1,4,False,,768,1144,False,False,1,,796,1276,18723,152,50,50,Right,0.45338789799999996,0.253861698,0.564668885,0.46652140700000005,0.09782992199999999,-0.825085079,3000.0,Free,"Correct, no change",5,6
155,7,2982,1951,44.43,28.1,1647,555,1,-1,52,50,2,50,52,2,0,1,2,False,,534,1404,False,True,1,,1103,940,18973,107,50,52,Left,-0.21509129100000002,-0.225448748,-1.631467089,-1.11724273,-0.641764291,0.066634733,3000.0,Free,Correct to incorrect,5,6
156,7,2562,1896,57.08,31.32,692,362,1,-1,51,50,1,50,51,1,0,1,2,False,,760,1158,False,True,1,,734,882,19085,112,50,51,Left,1.010453888,0.653287069,-1.373098151,-0.930917537,-1.3813585030000002,-0.245207333,3000.0,Free,Correct to incorrect,3,6
157,7,3103,2318,50.72,54.93,888,1080,1,1,50,50,2,49,50,1,0,2,2,False,,826,1292,False,False,1,,778,1154,19237,152,49,49,Left,0.394290462,0.21148787600000002,0.5213399320000001,0.435274325,-1.3813585030000002,0.156474947,3000.0,Free,"Correct, no change",3,6
158,7,4327,1305,50.97,35.28,1319,309,-1,-1,50,50,0,50,50,0,1,2,3,False,,758,1416,False,True,1,,728,862,19293,56,50,50,Left,0.418510723,0.228854196,-1.055352501,-0.7017722690000001,-2.120952716,1.065271825,3000.0,Free,"Incorrect, no change",3,5
161,7,1528,1816,56.82,50.27,1784,2048,1,1,53,53,1,53,50,3,0,2,2,True,,998,958,True,True,1,,416,1366,19588,153,50,50,Right,0.985264817,0.635226095,0.147427121,0.165623581,0.09782992199999999,-1.0129328000000002,3000.0,Free,"Correct, no change",4,7
168,8,1367,1463,59.08,58.27,1496,552,1,1,55,55,2,55,50,5,0,1,2,True,,720,970,True,True,1,,832,626,20421,158,50,50,Right,1.204215971,0.7922176320000001,0.789337526,0.628543314,1.5770183480000002,-1.132472258,3000.0,Free,"Correct, no change",4,4
170,8,4286,2082,24.85,28.3,824,1752,1,1,54,54,2,50,54,4,0,2,2,False,,562,834,False,False,1,,852,1876,20711,126,50,50,Right,-2.112022089,-1.5855789669999998,-1.615419329,-1.1056697359999998,0.837424135,1.0348301,3000.0,Free,"Correct, no change",2,8
171,8,1447,1863,66.35,69.25,1020,1034,1,1,50,50,1,50,47,3,0,1,2,True,,854,1091,True,True,1,,516,1070,20878,167,47,47,Right,1.908541145,1.297230232,1.6703595580000001,1.263900648,0.09782992199999999,-1.073073769,3000.0,Free,"Correct, no change",3,6
175,8,3491,1180,58.32,67.92,382,989,1,1,55,55,2,55,50,5,0,1,4,True,,604,942,True,True,1,,1001,1140,21374,162,50,50,Left,1.13058638,0.739424018,1.563641953,1.186940242,1.5770183480000002,0.444557618,3000.0,Free,"Correct, no change",4,4
176,8,1524,5059,59.75,35.83,2744,1144,1,1,50,50,1,50,46,4,0,2,3,True,,537,1298,True,True,1,,1078,1070,21520,146,46,46,Left,1.269126269,0.838759371,-1.01122116,-0.6699465370000001,0.837424135,-1.015902724,3000.0,Free,"Correct, no change",3,5
180,8,2765,2309,57.58,17.4,1629,675,-1,1,45,50,0,45,50,5,1,1,2,False,,838,1218,True,False,1,,614,1094,21940,79,50,45,Right,1.058894409,0.6880197090000001,-2.490022256,-1.736397873,1.5770183480000002,-0.094483667,3000.0,Free,Incorrect to correct,3,6
181,8,1135,1511,63.1,72.6,1450,1247,1,1,56,56,1,56,50,6,0,1,3,True,,564,1307,True,True,1,,618,1278,22107,167,50,50,Right,1.593677759,1.071468066,1.93915954,1.457748286,2.316612561,-1.304727875,3000.0,Free,"Correct, no change",2,5
189,0,1256,1569,68.45,72.38,875,973,-1,-1,49,49,0,50,49,1,1,1,4,True,,795,1246,False,False,2,,852,866,28,28,50,50,Right,0.22848833699999999,-0.073695005,-0.008511496,-0.36075922200000005,-1.61813798,-0.4554129,3000.0,Free,"Incorrect, no change",2,4
192,0,1032,1571,70.45,57.08,403,799,1,-1,53,50,1,53,50,3,0,1,4,True,,1168,1006,True,False,2,,484,1046,429,106,50,53,Right,0.329739895,0.009980143,-0.7503045709999999,-1.06993207,0.180850715,-0.949072275,3000.0,Free,Correct to incorrect,2,2
193,0,1346,1328,68.75,78.58,509,418,1,1,53,53,2,53,50,3,0,1,3,True,,946,854,True,True,2,,753,1182,602,173,50,50,Left,0.24367607100000002,-0.061143733,0.29208439,-0.07338199,0.180850715,-0.257067616,3000.0,Free,"Correct, no change",1,3
200,0,1502,1515,83.73,76.03,1093,2720,1,-1,50,49,1,49,50,1,0,1,1,False,,920,653,False,True,2,,809,816,1564,102,49,50,Left,1.00205024,0.565583127,0.16845221100000002,-0.19157746399999998,-1.61813798,0.086730877,3000.0,Free,Correct to incorrect,1,3
202,0,1397,1642,76.72,55.97,472,655,-1,-1,50,50,0,50,50,0,1,1,4,False,,868,914,True,True,2,,772,1077,1782,33,50,50,Left,0.647163529,0.272301733,-0.8041209309999999,-1.121381865,-2.517632327,-0.144671954,3000.0,Free,"Incorrect, no change",2,2
206,0,1220,1368,79.77,81.32,10914,1009,1,1,53,53,1,50,53,3,0,1,3,False,,962,1324,False,False,2,,731,620,2211,179,50,50,Left,0.801572155,0.399906334,0.42492837899999997,0.053620207,0.180850715,-0.534751014,3000.0,Free,"Correct, no change",2,4
208,0,1045,1432,87.75,66.5,792,843,1,1,50,50,1,48,50,2,0,1,3,False,,938,940,False,False,2,,702,1046,2529,176,48,48,Left,1.205565871,0.733770175,-0.293592756,-0.633304081,-0.718643632,-0.9204224,3000.0,Free,"Correct, no change",1,1
210,1,2407,1512,59.25,55.83,1032,890,1,1,53,53,1,53,50,3,0,1,4,True,,816,836,True,True,2,,822,1429,2719,156,50,50,Right,-0.237268829,-0.458600687,-0.81090858,-1.127871028,0.180850715,2.081202905,3000.0,Free,"Correct, no change",2,3
211,1,932,1583,83.33,100.73,515,799,1,1,50,50,2,47,50,3,0,1,4,False,,932,1032,False,False,2,,734,986,2910,191,47,47,Left,0.9817999279999999,0.548848097,1.365987436,0.953296349,0.180850715,-1.169455924,3000.0,Free,"Correct, no change",2,2
212,1,1189,1462,41.05,64.75,755,387,1,1,50,50,1,50,48,2,0,1,3,True,,792,841,True,True,2,,888,996,3062,152,48,48,Right,-1.158658007,-1.220044535,-0.37843837,-0.7144186229999999,-0.718643632,-0.603069945,3000.0,Free,"Correct, no change",2,4
216,1,1879,1364,59.27,75.12,584,480,1,1,50,50,1,47,50,3,0,0,3,False,,632,1005,False,False,2,,722,1214,3506,166,47,47,Right,-0.236256314,-0.457763935,0.12433249199999999,-0.233757026,0.180850715,0.917577236,3000.0,Free,"Correct, no change",1,3
219,1,1131,1199,56.57,90.13,560,411,1,1,50,50,2,50,46,4,0,1,2,True,,588,1283,True,True,2,,892,550,3907,173,46,46,Right,-0.372945917,-0.570725385,0.852065436,0.461973984,1.080345063,-0.730892462,3000.0,Free,"Correct, no change",2,2
220,1,1479,1422,68.07,33.83,501,453,-1,1,50,53,0,53,50,3,1,1,4,True,,970,1640,False,True,2,,768,1034,3988,81,53,50,Left,0.209250541,-0.08959328300000001,-1.877539145,-2.147596692,0.180850715,0.036042637999999995,3000.0,Free,Incorrect to correct,2,2
230,2,1482,1569,23.82,81.08,456,1046,1,1,53,53,1,50,53,3,0,1,3,False,,882,1176,False,False,2,,811,994,5466,151,50,50,Left,-2.0309401780000003,-1.940905937,0.41329240899999997,0.042495927,0.180850715,0.042654147999999996,3000.0,Free,"Correct, no change",0,2
231,2,1537,1394,71.25,96.17,482,671,1,1,50,50,2,50,47,3,0,1,4,True,,918,796,True,True,2,,793,1176,5649,183,47,47,Left,0.37024051799999996,0.043450202,1.14490401,0.74193503,0.180850715,0.163865155,3000.0,Free,"Correct, no change",1,1
233,2,1453,1475,82.23,75.52,970,730,-1,-1,50,50,1,52,50,2,1,1,3,True,,964,1253,False,False,2,,764,1102,5818,20,52,52,Left,0.926111571,0.502826766,0.143725775,-0.21521655899999997,-0.718643632,-0.021257111000000002,3000.0,Free,"Incorrect, no change",1,1
235,2,1511,1418,79.28,84.02,879,696,-1,-1,50,50,1,53,50,3,1,1,4,True,,980,1242,False,False,2,,774,984,6010,17,53,53,Left,0.776765523,0.379405922,0.555833039,0.17876835600000002,0.180850715,0.106565406,3000.0,Free,"Incorrect, no change",1,3
241,2,1723,1170,57.05,78.85,647,500,1,1,53,53,1,50,53,3,0,1,3,False,,694,871,False,False,2,,934,1408,6867,167,50,50,Right,-0.34864554299999995,-0.55064335,0.305174856,-0.060867175,0.180850715,0.573778743,3000.0,Free,"Correct, no change",2,3
245,2,1856,1394,9.47,40.78,673,998,-1,-1,50,50,0,50,53,3,1,1,3,False,,709,1000,True,True,2,,962,1305,7333,74,53,53,Right,-2.7574201069999997,-2.541275125,-1.540580853,-1.825456085,0.180850715,0.866888997,3000.0,Free,"Incorrect, no change",4,1
246,2,1218,2146,69.13,58.17,448,1864,1,1,54,54,1,50,54,4,0,1,1,False,,986,732,False,False,2,,740,2099,7496,163,50,50,Left,0.26291386699999997,-0.045245455,-0.697457875,-1.019409299,1.080345063,-0.539158687,3000.0,Free,"Correct, no change",1,5
250,2,1132,1567,65.45,69.2,735,677,-1,1,50,52,0,50,52,2,1,1,3,False,,787,948,True,False,2,,914,1186,8111,101,52,50,Right,0.076611,-0.199207727,-0.162688096,-0.508155932,-0.718643632,-0.728688625,3000.0,Free,Incorrect to correct,3,2
252,3,1526,1543,62.68,41.17,398,602,-1,-1,50,50,1,53,50,3,1,1,3,True,,826,1364,False,False,2,,844,932,8327,47,53,53,Right,-0.06362240799999999,-0.31509780800000003,-1.5216724019999999,-1.80737913,0.180850715,0.139622953,3000.0,Free,"Incorrect, no change",0,3
253,3,2305,1989,67.05,84.52,2060,1185,1,1,54,54,1,50,54,4,0,1,2,False,,676,686,False,False,2,,932,1559,8502,175,50,50,Right,0.15761224699999998,-0.132267609,0.580074642,0.20194394,1.080345063,1.8564115819999998,3000.0,Free,"Correct, no change",1,4
254,3,1445,1526,92.9,96.9,847,1031,1,1,54,54,2,50,54,4,0,1,3,False,,898,759,False,False,2,,649,1226,8696,194,50,50,Left,1.4662886330000002,0.9492336809999999,1.180296751,0.775771381,1.080345063,-0.038887803,3000.0,Free,"Correct, no change",1,1
255,3,1396,1632,39.27,69.38,401,485,1,1,53,53,1,50,53,3,0,1,4,False,,948,1171,False,False,2,,785,806,8849,153,50,50,Left,-1.248771893,-1.294515417,-0.153961119,-0.49981272200000004,0.180850715,-0.146875791,3000.0,Free,"Correct, no change",0,1
266,3,1462,1423,97.15,100.07,724,388,1,1,53,53,2,50,53,3,0,1,4,False,,956,800,False,False,2,,610,1290,10157,198,50,50,Left,1.6814481940000001,1.1270433709999998,1.333988519,0.922704579,0.180850715,-0.0014225820000000001,3000.0,Free,"Correct, no change",0,1
267,3,1018,1389,73.48,71.3,656,736,1,1,52,52,1,52,50,2,0,2,5,True,,618,1212,True,True,2,,1047,1206,10328,171,50,50,Right,0.483136005,0.136747993,-0.060873360999999994,-0.41081848200000004,-0.718643632,-0.9799259859999999,3000.0,Free,"Correct, no change",1,1
269,3,2624,1355,54.47,68.97,810,425,1,1,53,53,1,53,50,3,0,1,4,True,,786,1034,True,True,2,,908,1225,10556,161,50,50,Right,-0.47926005299999996,-0.658584291,-0.17383923399999998,-0.5188167,0.180850715,2.559435424,3000.0,Free,"Correct, no change",0,2
278,4,1259,1393,87.87,82.8,502,476,-1,-1,48,48,0,50,48,2,1,1,3,True,,890,946,False,False,2,,734,874,11684,14,50,50,Left,1.211640965,0.738790684,0.49668352600000004,0.122219933,-0.718643632,-0.448801391,3000.0,Free,"Incorrect, no change",0,1
281,4,1543,3002,61.83,75.22,684,680,-1,-1,48,48,0,48,50,2,1,2,5,False,,576,1162,True,True,2,,1106,1356,12053,31,50,50,Right,-0.10665432,-0.350659746,0.129180813,-0.22912190899999998,-0.718643632,0.177088174,3000.0,Free,"Incorrect, no change",1,2
282,4,1334,1381,55.67,26.27,844,626,1,1,50,50,1,50,47,3,0,1,4,True,,791,806,True,True,2,,860,1286,12193,140,47,47,Right,-0.41850911799999996,-0.6083792020000001,-2.244072194,-2.498011511,0.180850715,-0.283513654,3000.0,Free,"Correct, no change",2,1
283,4,872,1467,86.5,87.83,390,267,1,1,53,53,2,50,53,3,0,1,5,False,,594,1050,False,False,2,,932,1132,12379,186,50,50,Right,1.142283648,0.681473207,0.740554059,0.355366301,0.180850715,-1.301686114,3000.0,Free,"Correct, no change",0,2
289,4,1540,1796,68.58,79.02,360,692,-1,-1,49,49,0,50,49,1,1,1,4,True,,848,902,False,False,2,,795,1221,13170,25,50,50,Left,0.235069688,-0.068256121,0.31341700100000003,-0.052987476,-1.61813798,0.17047666399999997,3000.0,Free,"Incorrect, no change",0,1
291,4,1333,1636,70.03,18.63,524,843,1,-1,52,50,2,52,50,2,0,1,5,True,,894,1303,True,False,2,,798,1312,13476,125,50,52,Left,0.308477068,-0.007591638,-2.614483899,-2.852134424,-0.718643632,-0.28571749,3000.0,Free,Correct to incorrect,1,1
292,4,2821,1296,80.67,95.15,395,632,-1,-1,49,49,0,49,50,1,1,1,3,False,,616,1272,True,True,2,,878,736,13487,11,50,50,Right,0.8471353559999999,0.43756015,1.095451138,0.69465684,-1.61813798,2.993591214,3000.0,Free,"Incorrect, no change",0,1
295,5,853,1362,87.53,89.12,378,383,1,1,50,50,1,49,50,1,0,1,4,False,,590,1314,False,False,2,,890,822,14023,187,49,49,Right,1.1944282,0.7245659090000001,0.803097397,0.415159306,-1.61813798,-1.3435590069999999,3000.0,Free,"Correct, no change",1,2
299,5,1532,1546,54.48,21.23,3442,1170,1,-1,53,50,1,53,50,3,0,1,2,True,,819,864,True,False,2,,952,1238,14428,116,50,53,Right,-0.478753795,-0.658165915,-2.4884275590000002,-2.7316213910000005,0.180850715,0.152845972,3000.0,Free,Correct to incorrect,0,1
305,5,1389,1462,49.18,74.2,750,390,1,1,54,54,2,54,50,4,0,1,5,True,,952,1160,True,True,2,,774,1376,15221,161,50,50,Left,-0.747070424,-0.879905058,0.079727941,-0.276400099,1.080345063,-0.162302646,3000.0,Free,"Correct, no change",1,2
307,5,1241,2437,92.55,99.17,844,722,1,1,50,50,2,50,47,3,0,1,5,True,,554,1108,True,True,2,,960,1214,15535,195,47,47,Right,1.44856961,0.9345905309999999,1.290353632,0.880988529,0.180850715,-0.48847044799999995,3000.0,Free,"Correct, no change",1,3
308,5,786,1385,85.43,94.18,1994,2464,-1,-1,48,48,0,50,48,2,1,1,4,True,,924,862,False,False,2,,682,1877,15544,9,50,50,Left,1.088114064,0.6367070029999999,1.048422427,0.6496962079999999,-0.718643632,-1.491216053,3000.0,Free,"Incorrect, no change",1,1
313,5,1421,2360,14.97,82.2,705,503,-1,-1,49,49,0,49,50,1,1,1,5,False,,940,905,True,True,2,,734,1138,16171,50,50,50,Left,-2.4789783219999997,-2.311168468,0.467593601,0.09440923300000001,-1.61813798,-0.09177987900000001,3000.0,Free,"Incorrect, no change",1,1
314,6,2722,1825,15.0,11.98,556,4175,-1,-1,48,48,0,50,48,2,1,1,4,True,,815,910,False,False,2,,914,1597,16257,86,50,50,Right,-2.477459549,-2.309913341,-2.936897229,-3.160369681,-0.718643632,2.7754114010000004,3000.0,Free,"Incorrect, no change",1,2
315,6,1311,1381,58.77,66.43,493,359,-1,-1,47,47,0,50,47,3,1,1,4,True,,830,972,False,False,2,,882,1244,16293,36,50,50,Right,-0.26156920300000003,-0.478682722,-0.296986581,-0.636548663,0.180850715,-0.334201893,3000.0,Free,"Incorrect, no change",1,0
317,6,1521,1239,70.7,78.4,404,655,1,1,50,50,2,46,50,4,0,1,4,False,,956,1206,False,False,2,,776,1267,16654,174,46,46,Left,0.34239634,0.020439537,0.283357413,-0.0817252,1.080345063,0.128603771,3000.0,Free,"Correct, no change",0,0
318,6,1584,1410,20.85,20.35,409,1014,1,-1,53,50,1,53,50,3,0,1,4,True,,821,1130,True,False,2,,922,1533,16753,99,50,53,Right,-2.181298742,-2.0651635319999997,-2.531092782,-2.7724104169999997,0.180850715,0.26744547,3000.0,Free,Correct to incorrect,0,3
319,6,1699,1623,73.85,86.88,402,1567,1,1,50,50,2,47,50,3,0,1,3,False,,904,678,False,False,2,,772,1648,16932,179,47,47,Left,0.501867544,0.152227895,0.6944950120000001,0.311332693,0.180850715,0.5208866670000001,3000.0,Free,"Correct, no change",2,2
320,6,1053,1581,61.28,67.22,228,400,1,1,52,52,1,50,52,2,0,1,5,False,,778,1434,False,False,2,,908,1073,17095,163,50,50,Right,-0.134498498,-0.37367041100000004,-0.258684847,-0.599931242,-0.718643632,-0.902791708,3000.0,Free,"Correct, no change",1,1
329,6,801,1608,53.48,73.08,522,1284,1,1,52,52,2,50,52,2,0,1,7,False,,910,1370,False,False,2,,700,1001,18357,162,50,50,Left,-0.529379574,-0.7000034890000001,0.025426749,-0.32831340600000003,-0.718643632,-1.458158505,3000.0,Free,"Correct, no change",2,0
334,6,1046,1456,70.7,86.45,453,354,1,1,50,50,1,48,50,2,0,1,4,False,,630,991,False,False,2,,906,1077,19007,178,48,48,Right,0.34239634,0.020439537,0.673647233,0.291401691,-0.718643632,-0.918218564,3000.0,Free,"Correct, no change",1,1
337,7,1089,1417,69.43,84.08,381,1227,-1,-1,49,49,1,50,49,1,1,1,5,True,,918,1196,False,False,2,,730,1151,19354,22,50,50,Left,0.27810160100000003,-0.032694182999999995,0.558742031,0.181549426,-1.61813798,-0.823453595,3000.0,Free,"Incorrect, no change",1,2
339,7,1502,1236,70.15,6.72,865,608,-1,1,47,50,0,50,47,3,1,1,5,True,,819,1541,False,True,2,,914,1130,19444,67,50,47,Right,0.314552161,-0.002571129,-3.1919188999999997,-3.4041768169999997,0.180850715,0.086730877,3000.0,Free,Incorrect to correct,0,0
344,7,1502,1393,81.72,99.1,583,578,1,1,54,54,1,50,54,4,0,1,4,False,,934,924,False,False,2,,769,1539,20180,189,50,50,Left,0.9002924240000001,0.481489603,1.286959808,0.877743948,1.080345063,0.086730877,3000.0,Free,"Correct, no change",1,1
345,7,1515,1965,63.43,81.12,379,1844,1,1,54,54,2,50,54,4,0,1,5,False,,900,1108,False,False,2,,804,1282,20351,171,50,50,Left,-0.025653073,-0.283719627,0.41523173700000005,0.044349973,1.080345063,0.11538075199999999,3000.0,Free,"Correct, no change",1,3
354,7,1421,2139,90.77,95.8,531,1477,1,1,56,56,1,56,50,6,0,1,3,True,,564,2085,True,True,2,,888,724,21612,192,50,50,Right,1.3584557240000001,0.860119649,1.126965223,0.724785098,2.879333758,-0.09177987900000001,3000.0,Free,"Correct, no change",1,1
355,7,1401,1678,36.9,70.68,516,939,1,1,56,56,2,56,50,6,0,1,5,True,,906,1325,True,True,2,,772,1322,21765,153,50,50,Left,-1.3687549890000001,-1.393670468,-0.090932949,-0.439556205,2.879333758,-0.13585660800000002,3000.0,Free,"Correct, no change",2,1
356,8,1473,1802,41.57,90.05,411,578,1,1,55,55,1,55,50,5,0,1,4,True,,908,1354,True,True,2,,776,1079,21930,165,50,50,Left,-1.132332602,-1.1982889970000001,0.84818678,0.45826589,1.97983941,0.022819619,3000.0,Free,"Correct, no change",1,1
358,8,1433,3165,95.27,100.95,602,657,1,1,50,50,1,50,46,4,0,1,5,True,,568,1304,True,True,2,,926,1299,22304,197,46,46,Right,1.5862717290000001,1.048388732,1.3766537419999998,0.9634936059999999,1.080345063,-0.06533384099999999,3000.0,Free,"Correct, no change",0,2
369,8,3370,1498,25.75,36.38,426,840,1,1,54,54,2,54,50,4,0,1,5,True,,807,1089,True,True,2,,944,1540,24006,130,50,50,Right,-1.933232425,-1.8601594190000001,-1.753906966,-2.0294012180000003,1.080345063,4.203497448999999,3000.0,Free,"Correct, no change",2,1
370,8,1932,1830,34.57,75.7,414,493,-1,1,47,50,0,47,50,3,1,1,5,False,,835,1265,True,False,2,,872,1360,24125,119,50,47,Right,-1.486713054,-1.491152016,0.152452752,-0.20687334899999998,0.180850715,1.03438057,3000.0,Free,Incorrect to correct,2,3
372,8,861,1494,51.07,46.87,517,691,1,1,50,50,2,46,50,4,0,2,6,False,,478,1260,False,False,2,,990,1277,24456,148,46,46,Right,-0.651387701,-0.800832043,-1.245318119,-1.5431774809999999,1.080345063,-1.325928315,3000.0,Free,"Correct, no change",1,3
373,8,1857,1709,70.33,66.05,400,729,1,1,50,50,1,47,50,3,0,1,6,False,,940,1202,False,False,2,,790,1198,24624,168,47,47,Left,0.323664802,0.004959634,-0.31541020000000003,-0.654162106,0.180850715,0.869092833,3000.0,Free,"Correct, no change",1,0
375,8,1992,1504,53.4,26.03,719,572,1,-1,50,46,1,50,46,4,0,1,4,True,,940,1582,True,False,2,,773,840,24852,112,46,50,Left,-0.533429636,-0.703350495,-2.255708163,-2.509135791,1.080345063,1.16661076,3000.0,Free,Correct to incorrect,2,2
376,8,768,1993,73.9,77.93,602,1440,1,1,50,50,2,46,50,4,0,1,4,False,,944,824,False,False,2,,580,1512,25026,174,46,46,Left,0.504398833,0.154319774,0.260570305,-0.10351024800000001,1.080345063,-1.530885109,3000.0,Free,"Correct, no change",0,3
466,0,2619,1868,54.15,78.27,919,990,1,1,50,50,2,50,42,8,0,1,4,True,,918,720,True,True,7,,712,1382,364,166,42,42,Left,-0.264364174,-0.457973089,0.571807274,0.566323261,1.849959394,0.77311408,3000.0,Free,"Correct, no change",4,3
469,0,1984,1955,70.8,62.4,829,654,1,1,58,58,1,50,58,8,0,1,6,False,,854,1649,False,False,7,,740,898,858,166,50,50,Left,0.384018911,0.264236409,-0.05288391,-0.12271576099999999,1.849959394,0.017108781,3000.0,Free,"Correct, no change",4,1
471,0,1734,1569,14.0,46.48,7994,434,1,1,50,50,1,43,50,7,0,1,5,False,,765,1052,False,False,7,,840,1384,1153,130,43,43,Right,-1.827882543,-2.199517314,-0.679543245,-0.8139256690000001,1.252280205,-0.2805311,3000.0,Free,"Correct, no change",2,2
473,0,1367,2400,86.28,97.68,297,555,1,1,50,50,1,44,50,6,0,1,5,False,,434,1228,False,False,7,,1129,806,1523,191,44,44,Left,0.9868399409999999,0.935696051,1.335843561,1.409060969,0.654601016,-0.717466446,3000.0,Free,"Correct, no change",3,2
474,0,2666,2253,12.77,24.82,1152,731,-1,1,44,50,1,50,44,6,1,1,6,True,,660,1651,False,True,7,,755,896,1628,105,50,44,Left,-1.8757811130000002,-2.2528697269999998,-1.532146335,-1.754353219,0.654601016,0.8290703779999999,3000.0,Free,Incorrect to correct,4,1
481,0,2086,1710,59.35,33.82,568,568,1,1,50,50,2,44,50,6,0,1,2,False,,874,558,False,False,7,,709,1021,2682,145,44,44,Left,-0.061866153,-0.23241817,-1.1778791229999999,-1.3635938490000001,0.654601016,0.138545853,3000.0,Free,"Correct, no change",3,2
485,1,1689,1799,75.45,92.32,916,479,1,1,56,56,2,56,50,6,0,1,3,True,,741,847,True,True,7,,866,1642,3233,183,50,50,Right,0.565098871,0.465934557,1.124857755,1.176342055,0.654601016,-0.334106279,3000.0,Free,"Correct, no change",4,5
488,1,1527,1862,65.78,49.67,597,468,1,1,54,54,1,50,54,4,0,1,7,False,,1038,1113,False,False,7,,572,1258,3725,156,50,50,Left,0.188530437,0.046489160999999994,-0.5539752,-0.675423181,-0.540757361,-0.526976922,3000.0,Free,"Correct, no change",2,2
489,1,1589,1426,72.92,84.23,686,766,1,1,50,50,2,46,50,4,0,1,4,False,,838,1158,False,False,7,,739,800,3903,178,46,46,Left,0.46657579600000004,0.356193414,0.8064108940000001,0.8250927990000001,-0.540757361,-0.453162231,3000.0,Free,"Correct, no change",4,2
495,1,1429,2294,66.98,70.58,1001,807,1,1,50,50,1,50,46,4,0,1,2,True,,644,907,True,True,7,,936,1272,4689,168,46,46,Right,0.23526075,0.098540296,0.269105623,0.23244108800000002,-0.540757361,-0.643651756,3000.0,Free,"Correct, no change",3,6
496,1,1483,2547,72.6,66.77,625,916,1,1,50,50,2,46,50,4,0,1,2,False,,740,372,False,False,7,,858,1936,4858,169,46,46,Right,0.454114379,0.34231311200000003,0.119132503,0.067019622,-0.540757361,-0.579361541,3000.0,Free,"Correct, no change",2,7
501,1,1512,2041,62.67,57.82,360,998,-1,1,50,54,0,54,50,4,1,1,2,True,,856,1045,False,True,7,,743,1403,5477,96,54,50,Left,0.067421044,-0.08841003,-0.233166558,-0.321568863,-0.540757361,-0.544835315,3000.0,Free,Incorrect to correct,3,5
502,1,2018,1458,63.58,75.88,1482,574,1,1,50,50,1,45,50,5,0,1,4,False,,868,1986,False,False,7,,745,562,5645,168,45,45,Left,0.10285819800000001,-0.04893792,0.47772964799999995,0.46255494,0.056921827,0.057587805,3000.0,Free,"Correct, no change",3,4
505,1,1718,1514,21.17,45.63,1032,375,-1,1,50,57,0,50,57,7,1,1,5,False,,646,1307,True,False,7,,888,760,5950,111,57,50,Right,-1.548668926,-1.888511782,-0.713001815,-0.85083072,1.252280205,-0.299580053,3000.0,Free,Incorrect to correct,3,1
510,2,1633,1717,88.08,83.02,882,823,1,1,50,50,2,42,50,8,0,1,2,False,,874,1980,False,False,7,,713,342,6759,185,42,42,Left,1.056935409,1.013772753,0.7587816359999999,0.7725573729999999,1.849959394,-0.400777612,3000.0,Free,"Correct, no change",4,8
515,2,1664,1839,44.35,16.87,920,1946,-1,-1,50,50,0,55,50,5,1,1,4,True,,878,930,False,False,7,,731,1487,7568,68,55,55,Left,-0.645995058,-0.883057358,-1.8450823719999998,-2.099523996,0.056921827,-0.363870267,3000.0,Free,"Incorrect, no change",3,3
521,2,1558,1556,69.28,74.28,999,595,1,1,50,50,2,46,50,4,0,1,6,False,,700,1520,False,False,7,,843,1015,8483,171,46,46,Left,0.324827182,0.198304972,0.41474881,0.39308660700000003,-0.540757361,-0.49006957700000003,3000.0,Free,"Correct, no change",3,2
522,2,2007,2102,36.55,30.8,599,554,-1,1,50,53,0,50,53,3,1,1,4,False,,771,944,True,False,7,,838,1065,8579,96,53,50,Right,-0.949742089,-1.221389735,-1.2967554540000001,-1.494715327,-1.13843655,0.04449165,3000.0,Free,Incorrect to correct,2,3
524,2,1589,3353,89.47,60.18,584,982,1,1,54,54,2,54,50,4,0,1,1,True,,925,2569,True,True,7,,680,216,8931,174,50,50,Right,1.111064688,1.074065318,-0.140269822,-0.21910307199999998,-0.540757361,-0.453162231,3000.0,Free,"Correct, no change",3,7
525,2,2670,2071,68.12,76.22,1024,607,-1,1,47,50,0,47,50,3,1,1,3,False,,763,666,True,False,7,,858,1122,9034,103,50,47,Right,0.279654546,0.147988874,0.49111307600000004,0.47731696,-1.13843655,0.8338326159999999,3000.0,Free,Incorrect to correct,4,2
527,3,3075,3437,98.07,74.58,546,2168,1,1,55,55,1,55,50,5,0,1,3,True,,744,1201,True,True,7,,866,1348,9322,186,50,50,Right,1.44596526,1.4470984519999999,0.426557717,0.40611192,0.056921827,1.316009224,3000.0,Free,"Correct, no change",3,7
530,3,1676,1605,52.3,50.82,964,685,-1,1,50,54,1,50,54,4,1,1,3,False,,687,823,True,False,7,,912,1572,9749,98,54,50,Right,-0.336406739,-0.538218589,-0.508707722,-0.625492817,-0.540757361,-0.349583553,3000.0,Free,Incorrect to correct,1,4
536,3,1398,1508,82.32,69.57,233,645,1,1,56,56,2,50,56,6,0,1,5,False,,828,1047,False,False,7,,735,1494,10553,175,50,50,Left,0.83262991,0.763927305,0.22934896899999999,0.18858920399999998,0.654601016,-0.6805591009999999,3000.0,Free,"Correct, no change",3,3
537,3,1558,1573,79.57,76.35,483,833,1,1,55,55,1,55,50,5,0,1,5,True,,643,1050,True,True,7,,988,1498,10730,177,50,50,Right,0.72553961,0.644643454,0.496230269,0.482961262,0.056921827,-0.49006957700000003,3000.0,Free,"Correct, no change",2,2
538,3,1429,1942,42.27,60.12,947,747,1,1,50,50,2,50,45,5,0,1,4,True,,768,837,True,True,7,,886,1194,10881,151,45,45,Right,-0.726994267,-0.973279325,-0.142631603,-0.221708135,0.056921827,-0.643651756,3000.0,Free,"Correct, no change",3,2
541,3,1798,2417,86.52,82.57,483,559,1,1,50,50,1,50,45,5,0,1,4,True,,807,1154,True,True,7,,764,844,11267,184,45,45,Right,0.9961860029999999,0.946106278,0.741068275,0.753019405,0.056921827,-0.20433529,3000.0,Free,"Correct, no change",3,3
543,3,2794,1505,49.65,40.23,335,589,1,1,54,54,1,50,54,4,0,1,6,False,,908,990,False,False,7,,747,1279,11547,144,50,50,Left,-0.439602845,-0.653164845,-0.925562142,-1.085286342,-0.540757361,0.981461997,3000.0,Free,"Correct, no change",3,1
547,3,1459,1545,50.62,66.07,835,266,1,1,54,54,1,50,54,4,0,1,5,False,,886,884,False,False,7,,727,1637,12100,158,50,50,Left,-0.401829176,-0.611090178,0.091578387,0.036627226,-0.540757361,-0.60793497,3000.0,Free,"Correct, no change",3,4
549,4,1851,1446,79.43,76.88,1232,1049,1,1,56,56,1,56,50,6,0,1,5,True,,802,546,True,True,7,,874,820,12323,177,50,50,Right,0.720087741,0.638570822,0.517092671,0.505972647,0.654601016,-0.141235636,3000.0,Free,"Correct, no change",1,0
557,4,1649,2508,22.13,57.33,1659,1387,1,1,50,50,1,50,45,5,0,1,6,True,,892,1465,True,True,7,,762,978,13399,139,45,45,Left,-1.511284676,-1.8468708740000002,-0.252454439,-0.34284354,0.056921827,-0.38172866,3000.0,Free,"Correct, no change",2,4
559,4,1356,1765,72.58,80.53,687,501,1,1,50,50,1,50,44,6,0,1,5,True,,789,1095,True,True,7,,860,1418,13678,176,44,44,Right,0.453335541,0.341445593,0.660767707,0.6644472810000001,0.654601016,-0.7305626009999999,3000.0,Free,"Correct, no change",2,4
560,4,2420,1791,20.0,8.48,1508,657,1,1,56,56,2,56,50,6,0,1,2,True,,930,2139,True,True,7,,678,464,13792,114,50,50,Left,-1.594230981,-1.9392616390000001,-2.17533814,-2.463798564,0.654601016,0.536192735,3000.0,Free,"Correct, no change",4,6
563,4,1565,1743,58.3,63.68,1444,692,1,1,54,54,1,54,50,4,0,1,3,True,,828,1084,True,True,7,,751,1154,14287,160,50,50,Left,-0.10275517699999999,-0.277962914,-0.00249924,-0.067141095,-0.540757361,-0.48173566,3000.0,Free,"Correct, no change",3,3
565,4,1396,1728,78.12,76.78,1047,771,1,1,50,50,1,50,47,3,0,1,3,True,,751,1279,True,True,7,,838,1348,14549,177,47,47,Right,0.669073816,0.581748333,0.513156369,0.501630877,-1.13843655,-0.68294022,3000.0,Free,"Correct, no change",4,6
567,4,2126,1803,31.22,20.87,848,728,1,1,52,52,1,52,50,2,0,1,2,True,,756,1686,True,True,7,,828,694,14797,125,50,50,Right,-1.15730256,-1.4525835269999998,-1.687630278,-1.925853165,-1.7361157390000002,0.186168234,3000.0,Free,"Correct, no change",4,6
573,5,1298,1678,93.13,78.87,517,513,1,1,50,50,1,49,50,1,0,1,3,False,,950,1937,False,False,7,,673,718,15635,185,49,49,Left,1.25359214,1.23282128,0.5954250879999999,0.592373886,-2.333794927,-0.799615053,3000.0,Free,"Correct, no change",2,6
575,5,1363,1726,33.25,48.42,774,300,-1,-1,50,50,0,50,50,0,1,1,1,False,,716,1007,True,True,7,,920,1346,15816,58,50,50,Right,-1.078250448,-1.3645303569999998,-0.603178979,-0.7296953159999999,-2.9314741160000004,-0.7222286840000001,3000.0,Free,"Incorrect, no change",3,6
582,5,1726,1851,31.78,27.53,784,485,-1,1,48,50,0,48,50,2,1,1,3,False,,886,1941,True,False,7,,700,664,16702,97,50,48,Left,-1.135495081,-1.4282929969999998,-1.425472541,-1.636691231,-1.7361157390000002,-0.29005557600000004,3000.0,Free,Incorrect to correct,4,7
583,5,2726,2781,42.83,33.08,489,441,1,1,53,53,1,53,50,3,0,1,6,True,,735,1008,True,True,7,,826,1204,16839,137,50,50,Right,-0.705186787,-0.948988796,-1.20700776,-1.3957229530000002,-1.13843655,0.90050395,3000.0,Free,"Correct, no change",3,1
585,5,4413,1959,22.1,5.63,2006,620,-1,-1,48,48,0,48,50,2,1,1,2,False,,718,2377,True,True,7,,742,380,17075,85,50,50,Left,-1.5124529340000001,-1.8481721530000002,-2.287522757,-2.587539031,-1.7361157390000002,2.90897787,3000.0,Free,"Incorrect, no change",3,6
587,5,3016,1684,57.77,56.28,386,301,-1,1,50,54,0,54,50,4,1,1,4,True,,924,1058,False,True,7,,682,1178,17279,99,54,50,Left,-0.123394398,-0.300952165,-0.293785614,-0.38843213299999996,-0.540757361,1.245766212,3000.0,Free,Incorrect to correct,3,4
588,5,1545,1816,79.2,83.43,277,274,1,1,50,50,1,45,50,5,0,1,3,False,,866,1332,False,False,7,,811,537,17459,180,45,45,Left,0.711131097,0.628594354,0.7749204759999999,0.790358633,0.056921827,-0.505546851,3000.0,Free,"Correct, no change",2,2
592,6,1755,1619,47.1,62.3,516,273,1,1,55,55,1,50,55,5,0,1,3,False,,726,1630,False,False,7,,830,801,17973,154,50,50,Right,-0.538904759,-0.763773507,-0.056820212,-0.127057532,0.056921827,-0.25552935,3000.0,Free,"Correct, no change",3,6
594,6,1771,1851,23.7,16.82,1988,708,-1,-1,50,50,0,50,54,4,1,1,2,False,,690,436,True,True,7,,938,1746,18189,79,54,54,Right,-1.450145851,-1.778770639,-1.847050523,-2.101694881,-0.540757361,-0.236480398,3000.0,Free,"Incorrect, no change",2,4
598,6,1309,2236,77.93,57.72,718,611,1,1,50,50,2,50,46,4,0,1,5,True,,758,998,True,True,7,,876,1551,18836,166,46,46,Right,0.66167485,0.573506903,-0.23710286,-0.325910633,-0.540757361,-0.786518899,3000.0,Free,"Correct, no change",3,2
600,6,1634,1671,85.58,60.73,921,549,-1,-1,47,47,1,50,47,3,1,2,3,True,,1164,1290,False,False,7,,350,896,19022,26,50,50,Left,0.959580592,0.9053328890000001,-0.118620159,-0.195223333,-1.13843655,-0.39958705299999997,3000.0,Free,"Incorrect, no change",2,2
601,6,1304,1674,97.35,100.75,734,880,1,1,50,50,1,50,46,4,0,1,4,True,,788,836,True,True,7,,846,1401,19220,198,46,46,Right,1.417927072,1.4158677709999998,1.4566880430000002,1.5423533319999998,-0.540757361,-0.7924716959999999,3000.0,Free,"Correct, no change",2,6
604,6,1975,1903,60.65,83.6,319,398,1,1,55,55,2,55,50,5,0,1,1,True,,968,1301,True,True,7,,704,1314,19644,171,50,50,Left,-0.011241648,-0.176029441,0.78161219,0.7977396440000001,0.056921827,0.006393746,3000.0,Free,"Correct, no change",1,9
611,7,1373,1521,50.02,63.63,1317,691,1,1,50,50,2,44,50,6,0,1,2,False,,852,1226,False,False,7,,737,518,20582,156,44,44,Left,-0.425194332,-0.637115745,-0.004467390999999999,-0.069311981,0.654601016,-0.7103230890000001,3000.0,Free,"Correct, no change",3,3
612,7,2710,1746,70.53,53.48,890,7055,-1,-1,45,45,0,45,50,5,1,1,1,False,,789,381,True,True,7,,860,2126,20619,37,50,50,Right,0.37350459,0.252524904,-0.40400208,-0.5100017139999999,0.056921827,0.8814549970000001,3000.0,Free,"Incorrect, no change",1,4
616,7,1417,1398,87.15,86.97,219,829,1,1,50,50,1,44,50,6,0,1,6,False,,682,1114,False,False,7,,936,1369,21247,186,44,44,Right,1.020719417,0.973433124,0.914265579,0.944057319,0.654601016,-0.65793847,3000.0,Free,"Correct, no change",2,0
618,7,1372,2714,88.55,96.85,910,501,1,1,50,50,1,43,50,7,0,1,3,False,,888,591,False,False,7,,632,2102,21549,192,43,43,Left,1.075238115,1.034159448,1.303172252,1.3730242719999999,1.252280205,-0.711513649,3000.0,Free,"Correct, no change",3,5
620,7,1310,1925,99.33,98.35,1761,445,1,1,58,58,1,50,58,8,0,2,2,False,,855,1420,False,False,7,,580,1050,21887,198,50,50,Left,1.495032088,1.5017521440000001,1.362216787,1.4381508330000001,1.849959394,-0.7853283390000001,3000.0,Free,"Correct, no change",1,6
625,7,1907,1614,74.8,87.9,428,402,1,1,50,50,2,50,44,6,0,1,5,True,,928,1166,True,True,7,,766,1359,22861,180,44,44,Left,0.539786619,0.43774019299999994,0.9508731909999999,0.984435787,0.654601016,-0.074564302,3000.0,Free,"Correct, no change",1,4
628,7,1687,1590,96.93,100.67,578,1708,1,1,50,50,1,46,50,4,0,0,4,False,,584,1411,False,False,7,,848,856,23355,198,46,46,Left,1.401571463,1.397649874,1.4535390019999999,1.538879915,-0.540757361,-0.336487398,3000.0,Free,"Correct, no change",2,2
630,7,1309,1734,90.28,85.15,485,556,1,1,50,50,1,47,50,3,0,1,6,False,,822,1143,False,False,7,,767,1306,23638,187,47,47,Left,1.1426076490000001,1.109199834,0.8426248759999999,0.8650370909999999,-1.13843655,-0.786518899,3000.0,Free,"Correct, no change",2,0
636,8,2900,1807,80.68,85.5,525,236,-1,1,50,55,0,50,55,5,1,1,3,False,,778,984,True,False,7,,810,1600,24242,101,55,50,Right,0.768765149,0.692790754,0.8564019340000001,0.880233288,0.056921827,1.107661307,3000.0,Free,Incorrect to correct,3,6
637,8,2603,1479,46.95,42.97,1445,934,-1,-1,50,50,0,50,56,6,1,1,4,False,,766,952,True,True,7,,884,824,24296,54,56,56,Right,-0.5447460479999999,-0.770279899,-0.817707457,-0.966321823,0.654601016,0.7540651279999999,3000.0,Free,"Incorrect, no change",2,1
638,8,3671,1775,32.8,51.92,997,798,1,1,57,57,1,57,50,7,0,1,4,True,,934,1300,True,True,7,,678,1079,24437,141,50,50,Left,-1.095774315,-1.384049532,-0.46540839700000003,-0.577733339,1.252280205,2.025582702,3000.0,Free,"Correct, no change",3,4
642,8,1622,3188,40.55,29.67,806,588,1,1,50,50,1,43,50,7,0,1,5,False,,741,900,False,False,7,,894,752,25029,134,43,43,Right,-0.793974381,-1.0478859520000001,-1.341235671,-1.543777336,1.252280205,-0.413873767,3000.0,Free,"Correct, no change",3,0
644,8,1318,1645,94.67,98.17,456,298,1,1,50,50,1,44,50,6,0,1,6,False,,878,784,False,False,7,,749,1384,25415,196,44,44,Left,1.313562708,1.299620236,1.355131443,1.4303356459999998,0.654601016,-0.7758038629999999,3000.0,Free,"Correct, no change",4,2
647,8,1872,1469,23.53,48.67,248,393,-1,1,44,50,0,44,50,6,1,1,4,False,,729,1192,True,False,7,,894,1226,25817,112,50,44,Right,-1.4567659780000002,-1.78614455,-0.5933382229999999,-0.7188408890000001,0.654601016,-0.116233886,3000.0,Free,Incorrect to correct,3,3
651,8,1645,1664,40.75,49.97,1188,466,-1,1,50,56,1,56,50,6,1,2,6,True,,1184,1387,False,True,7,,346,892,26484,103,56,50,Left,-0.7861859959999999,-1.039210763,-0.542166292,-0.662397869,0.654601016,-0.38649089799999997,3000.0,Free,Incorrect to correct,0,1
793,0,1566,2101,98.55,93.55,4250,5215,1,1,50,50,1,50,43,7,0,1,2,True,,660,1440,True,True,9,,674,488,195,195,43,43,Right,0.647803573,0.767001652,-0.228880133,0.232815169,0.840363761,-0.856060733,3000.0,Free,"Correct, no change",2,6
800,0,1487,7648,96.83,100.47,434,950,1,1,57,57,1,57,50,7,0,1,2,True,,1033,1034,True,True,9,,416,462,1174,198,50,50,Right,0.539906012,0.6774756209999999,0.437106669,0.646971992,0.840363761,-0.9227022490000001,3000.0,Free,"Correct, no change",4,5
802,0,4964,2479,88.9,68.87,1215,782,1,-1,50,44,1,50,44,6,0,2,3,True,,846,1224,True,False,9,,644,723,1482,109,44,50,Right,0.042448071,0.264718976,-2.6041047390000003,-1.244264368,0.30196121600000003,2.010368026,3000.0,Free,Correct to incorrect,5,7
803,0,1193,7065,62.25,93.28,8794,829,-1,1,44,50,1,44,50,6,1,1,2,False,,916,1314,True,False,9,,669,544,1596,114,50,44,Left,-1.629336811,-1.122414008,-0.254865167,0.21665587100000003,0.30196121600000003,-1.1707099159999999,3000.0,Free,Incorrect to correct,5,6
807,0,1607,4073,95.65,101.58,542,841,1,1,57,57,1,57,50,7,0,1,4,True,,882,1240,True,True,9,,702,698,2302,197,50,50,Left,0.46588326700000005,0.616056599,0.543934032,0.7134046620000001,0.840363761,-0.821474629,3000.0,Free,"Correct, no change",5,6
808,0,1829,3109,98.83,101.5,871,1048,1,1,50,50,2,50,43,7,0,1,4,True,,670,1204,True,True,9,,824,588,2501,199,43,43,Right,0.665368292,0.781575657,0.536234763,0.708616722,0.840363761,-0.634203533,3000.0,Free,"Correct, no change",6,6
809,0,1870,4139,94.53,96.05,966,2638,1,1,56,56,1,50,56,6,0,1,3,False,,760,1020,False,False,9,,793,806,2696,195,50,50,Left,0.39562439,0.557760579,0.011722036000000002,0.382438299,0.30196121600000003,-0.59961743,3000.0,Free,"Correct, no change",6,5
814,1,1643,2069,96.17,85.52,1118,2114,-1,1,45,50,0,45,50,5,1,1,4,False,,780,1157,True,False,9,,676,844,3410,93,50,45,Left,0.498503459,0.643122609,-1.001694297,-0.247774324,-0.23644132899999998,-0.7911063429999999,3000.0,Free,Incorrect to correct,5,5
819,1,2329,1874,98.33,101.02,1275,1120,1,1,57,57,1,57,50,7,0,1,2,True,,506,846,True,True,9,,742,635,4023,199,50,50,Right,0.6340027220000001,0.7555506479999999,0.490039147,0.6798890809999999,0.840363761,-0.212421785,3000.0,Free,"Correct, no change",3,4
822,1,2887,3973,91.85,101.25,1156,1928,1,1,57,57,1,50,57,7,0,1,2,False,,730,624,False,False,9,,732,546,4537,195,50,50,Right,0.227504935,0.41826653,0.512174546,0.6936544090000001,0.840363761,0.258286645,3000.0,Free,"Correct, no change",4,6
823,1,1739,1886,98.13,101.53,1606,1563,-1,-1,50,50,1,57,50,7,1,1,4,True,,730,934,False,False,9,,846,838,4537,0,57,57,Right,0.621456494,0.745140644,0.539121989,0.7104121990000001,0.840363761,-0.710124248,3000.0,Free,"Incorrect, no change",5,5
825,1,2049,2984,97.22,101.68,1252,996,1,1,50,50,2,50,42,8,0,2,4,True,,912,1154,True,True,9,,562,660,4934,198,42,42,Left,0.5643711570000001,0.697775128,0.553558119,0.719389587,1.378766306,-0.44861956399999997,3000.0,Free,"Correct, no change",2,6
831,1,2750,3477,97.25,98.67,807,1365,-1,-1,50,50,1,50,57,7,1,1,3,False,,666,1308,True,True,9,,804,761,5719,1,57,57,Right,0.566253091,0.699336628,0.263873108,0.539243339,0.840363761,0.142718446,3000.0,Free,"Incorrect, no change",5,5
833,1,1808,1783,62.0,100.53,991,981,1,1,58,58,2,58,50,8,0,1,3,True,,706,1176,True,True,9,,524,752,6094,181,50,50,Right,-1.645019596,-1.1354265129999999,0.442881122,0.6505629470000001,1.378766306,-0.651918367,3000.0,Free,"Correct, no change",5,7
835,2,1639,1882,76.28,99.13,1210,1111,-1,-1,43,43,1,43,50,7,1,1,3,False,,932,1214,True,True,9,,669,807,6302,11,50,50,Left,-0.7492189159999999,-0.39215225299999995,0.308143907,0.566773995,0.840363761,-0.7944805970000001,3000.0,Free,"Incorrect, no change",4,6
836,2,1548,1307,98.9,99.93,1114,622,1,1,58,58,1,50,58,8,0,1,1,False,,920,458,False,False,9,,694,948,6500,198,50,50,Left,0.6697594720000001,0.785219158,0.385136601,0.614653396,1.378766306,-0.8712448759999999,3000.0,Free,"Correct, no change",4,4
846,2,1624,5984,96.4,99.42,2471,1388,1,1,55,55,2,55,50,5,0,2,3,True,,1043,910,True,True,9,,698,911,8269,197,50,50,Right,0.512931622,0.655094113,0.336053759,0.584130278,-0.23644132899999998,-0.80713405,3000.0,Free,"Correct, no change",4,6
847,2,1590,1938,94.23,100.52,1040,885,-1,-1,46,46,0,50,46,4,1,2,3,True,,560,930,False,False,9,,819,790,8271,2,50,50,Right,0.376805048,0.542145573,0.44191871299999996,0.649964455,-0.7748438740000001,-0.8358152090000001,3000.0,Free,"Incorrect, no change",5,4
849,2,1791,2986,90.63,77.97,801,1124,-1,-1,50,50,1,50,55,5,1,1,2,False,,636,786,True,True,9,,824,1224,8478,15,55,55,Right,0.150972944,0.35476550799999995,-1.728312846,-0.699636175,-0.23644132899999998,-0.666258946,3000.0,Free,"Incorrect, no change",6,6
851,2,2134,2130,97.55,101.58,4696,839,1,1,50,50,2,50,44,6,0,1,2,True,,764,937,True,True,9,,808,1110,8874,198,44,44,Right,0.585072433,0.7149516340000001,0.543934032,0.7134046620000001,0.30196121600000003,-0.37691666700000004,3000.0,Free,"Correct, no change",4,7
853,2,1983,1782,53.97,92.55,1308,929,1,1,50,50,2,45,50,5,0,3,3,False,,738,665,False,False,9,,686,1260,9244,172,45,45,Left,-2.14875065,-1.553388159,-0.325121,0.172965917,-0.23644132899999998,-0.504294755,3000.0,Free,"Correct, no change",5,7
858,3,3627,2531,98.63,101.88,10734,701,-1,-1,50,50,0,50,54,4,1,1,3,False,,764,1300,True,True,9,,738,720,9834,0,54,54,Right,0.652822064,0.771165654,0.572806292,0.7313594370000001,-0.7748438740000001,0.8825236320000001,3000.0,Free,"Incorrect, no change",4,5
860,3,1437,3079,97.95,100.92,1405,4660,1,1,50,50,1,44,50,6,0,1,1,False,,914,558,False,False,9,,677,1334,10032,198,44,44,Left,0.610164889,0.7357716409999999,0.48041506,0.673904155,0.30196121600000003,-0.9648804240000001,3000.0,Free,"Correct, no change",5,5
861,3,1960,1958,97.1,101.57,1290,3367,1,1,50,50,2,50,44,6,0,1,4,True,,684,1008,True,True,9,,728,956,10230,198,44,44,Right,0.55684342,0.6915291259999999,0.542971624,0.712806169,0.30196121600000003,-0.523696715,3000.0,Free,"Correct, no change",5,7
862,3,2565,1407,98.07,101.95,11966,1084,1,1,55,55,1,55,50,5,0,1,3,True,,682,1018,True,True,9,,718,984,10429,199,50,50,Right,0.617692626,0.742017643,0.5795431529999999,0.735548885,-0.23644132899999998,-0.013340799999999998,3000.0,Free,"Correct, no change",5,5
863,3,4157,3106,98.13,97.45,1186,1255,1,1,50,50,2,50,45,5,0,1,4,True,,722,991,True,True,9,,710,1028,10626,197,45,45,Right,0.621456494,0.745140644,0.14645925,0.466227251,-0.23644132899999998,1.329612285,3000.0,Free,"Correct, no change",4,8
864,3,3823,2376,98.67,101.33,3558,1586,1,1,50,50,1,50,46,4,0,1,2,True,,686,1350,True,True,9,,616,354,10825,199,46,46,Right,0.65533131,0.7732476540000001,0.519873815,0.698442349,-0.7748438740000001,1.047862077,3000.0,Free,"Correct, no change",5,5
873,3,3129,2990,97.97,100.5,786,1676,-1,-1,44,44,1,44,50,6,1,1,0,False,,776,909,True,True,9,,729,566,11891,1,50,50,Left,0.611419512,0.736812641,0.439993896,0.64876747,0.30196121600000003,0.462429011,3000.0,Free,"Incorrect, no change",5,5
878,4,3183,1581,96.88,85.18,1533,1710,1,1,50,50,1,50,45,5,0,2,3,True,,823,1430,True,True,9,,634,840,12845,190,45,45,Right,0.543042569,0.6800781220000001,-1.0344161920000001,-0.268123069,-0.23644132899999998,0.50798144,3000.0,Free,"Correct, no change",4,7
882,4,2804,3139,98.9,80.87,3793,923,-1,-1,50,50,0,50,53,3,1,1,1,False,,732,1518,True,True,9,,870,660,13427,9,53,53,Right,0.6697594720000001,0.785219158,-1.4492143309999999,-0.526073345,-1.31324642,0.188270875,3000.0,Free,"Incorrect, no change",5,7
886,4,1673,2203,95.5,100.35,730,820,-1,-1,50,50,1,50,53,3,1,1,1,False,,722,1444,True,True,9,,816,384,14008,2,53,53,Right,0.45647359600000004,0.6082490970000001,0.425557765,0.639790082,-1.31324642,-0.765799439,3000.0,Free,"Incorrect, no change",5,4
891,4,1826,2889,99.12,100.23,1952,5633,1,1,50,50,1,48,50,2,0,1,4,False,,894,674,False,False,9,,472,990,15003,199,48,48,Left,0.683560323,0.7966701620000001,0.414008861,0.6326081720000001,-1.851648965,-0.636734224,3000.0,Free,"Correct, no change",3,5
894,4,1783,1744,98.57,87.33,1097,1889,1,1,52,52,1,50,52,2,0,1,4,False,,814,942,False,False,9,,670,843,15386,192,50,50,Left,0.649058196,0.768042652,-0.827498327,-0.139447178,-1.851648965,-0.6730074540000001,3000.0,Free,"Correct, no change",6,6
895,4,1434,1814,97.07,101.63,628,1362,1,1,52,52,2,50,52,2,0,1,3,False,,860,788,False,False,9,,732,977,15584,198,50,50,Left,0.5549614860000001,0.689967625,0.548746076,0.7163971240000001,-1.851648965,-0.967411114,3000.0,Free,"Correct, no change",4,4
896,4,1598,1321,61.12,64.25,963,495,-1,-1,50,50,1,50,51,1,1,1,1,False,,926,958,True,True,9,,719,1446,15620,36,51,51,Left,-1.700222999,-1.181230529,-3.0487375460000004,-1.5207679109999999,-2.39005151,-0.8290667009999999,3000.0,Free,"Incorrect, no change",4,8
899,5,1778,1750,98.8,98.32,10565,2333,1,1,53,53,2,50,53,3,0,1,1,False,,1072,2046,False,False,9,,660,139,16038,198,50,50,Left,0.663486358,0.780014157,0.230188805,0.518296101,-1.31324642,-0.677225272,3000.0,Free,"Correct, no change",6,6
904,5,1836,3072,97.58,94.75,4492,820,-1,-1,48,48,0,48,50,2,1,2,4,False,,730,919,True,True,9,,568,966,16637,3,50,50,Right,0.586954367,0.716513134,-0.113391092,0.304634271,-1.851648965,-0.628298589,3000.0,Free,"Incorrect, no change",5,6
907,5,1810,1600,98.02,101.33,1243,797,1,1,50,50,1,50,48,2,0,1,1,True,,712,724,True,True,9,,692,956,17199,199,48,48,Right,0.614556069,0.739415142,0.519873815,0.698442349,-1.851648965,-0.65023124,3000.0,Free,"Correct, no change",4,6
909,5,1889,1658,96.7,59.92,4006,492,1,-1,51,50,1,51,50,1,0,1,3,True,,752,914,True,False,9,,746,965,17488,118,50,51,Right,0.531750964,0.670709118,-3.465460502,-1.779915172,-2.39005151,-0.583589724,3000.0,Free,Correct to incorrect,5,5
911,5,3747,2684,52.57,53.37,1432,1173,1,1,52,52,1,50,52,2,0,1,4,False,,466,944,False,False,9,,1099,780,17693,152,50,50,Left,-2.236574246,-1.626258185,-4.095838183,-2.171927772,-1.851648965,0.9837512509999999,3000.0,Free,"Correct, no change",5,7
916,5,2007,3902,95.83,95.03,17078,561,-1,-1,46,46,0,46,50,4,1,1,4,False,,762,1222,True,True,9,,722,762,17874,4,50,50,Left,0.477174872,0.6254256029999999,-0.086443649,0.321392062,-0.7748438740000001,-0.484049231,3000.0,Free,"Incorrect, no change",5,4
917,5,1919,1624,97.93,101.28,3809,1004,1,1,50,50,1,50,45,5,0,1,3,True,,846,920,True,True,9,,592,1038,18072,198,45,45,Left,0.608910266,0.734730641,0.515061772,0.6954498859999999,-0.23644132899999998,-0.558282819,3000.0,Free,"Correct, no change",3,7
919,6,1790,1738,98.55,101.53,5499,5888,1,1,50,50,1,50,46,4,0,1,5,True,,856,1278,True,True,9,,700,412,18469,199,46,46,Left,0.647803573,0.767001652,0.539121989,0.7104121990000001,-0.7748438740000001,-0.66710251,3000.0,Free,"Correct, no change",4,4
923,6,2473,1584,80.82,100.75,622,4367,-1,1,46,50,1,46,50,4,1,1,4,False,,700,1641,True,False,9,,800,582,18987,109,50,46,Right,-0.46441954,-0.155845171,0.464054112,0.663729783,-0.7748438740000001,-0.090948642,3000.0,Free,Incorrect to correct,5,6
926,6,2776,2635,98.55,101.42,13838,7138,1,1,56,56,1,56,50,6,0,1,1,True,,701,874,True,True,9,,817,1226,19379,199,50,50,Left,0.647803573,0.767001652,0.528535493,0.7038287809999999,0.30196121600000003,0.164651097,3000.0,Free,"Correct, no change",4,5
928,6,1299,1254,98.2,100.08,2825,3707,1,1,50,50,1,50,45,5,0,2,3,True,,896,804,True,True,9,,590,946,19751,199,45,45,Left,0.625847674,0.748784146,0.399572731,0.6236307839999999,-0.23644132899999998,-1.081292186,3000.0,Free,"Correct, no change",5,5
932,6,1543,3407,98.62,100.43,9324,14513,-1,-1,50,50,0,50,56,6,1,1,3,False,,726,1136,True,True,9,,814,982,19959,0,56,56,Right,0.652194753,0.7706451529999999,0.433257035,0.644578022,0.30196121600000003,-0.875462693,3000.0,Free,"Incorrect, no change",4,6
933,6,2321,2695,95.75,87.1,2139,646,-1,-1,50,50,0,50,57,7,1,1,3,False,,822,1008,True,True,9,,702,882,19967,8,57,57,Left,0.472156381,0.621261601,-0.8496337270000001,-0.153212506,0.840363761,-0.21917029300000002,3000.0,Free,"Incorrect, no change",4,6
935,6,1858,1818,97.62,100.8,709,846,1,1,50,50,2,50,42,8,0,1,2,True,,875,1494,True,True,9,,586,344,20362,198,42,42,Right,0.5894636129999999,0.718595135,0.46886615600000003,0.666722245,1.378766306,-0.6097401920000001,3000.0,Free,"Correct, no change",5,7
945,7,1483,2684,98.27,101.48,577,1596,1,1,57,57,1,57,50,7,0,1,3,True,,812,1537,True,True,9,,691,622,21836,199,50,50,Left,0.630238854,0.752427647,0.534309946,0.707419736,0.840363761,-0.926076503,3000.0,Free,"Correct, no change",6,4
946,7,3574,3295,98.32,93.7,620,586,1,1,57,57,2,57,50,7,0,1,3,True,,755,1020,True,True,9,,796,1191,22031,195,50,50,Right,0.633375411,0.755030148,-0.214444002,0.241792557,0.840363761,0.837814767,3000.0,Free,"Correct, no change",5,5
947,7,4358,1722,91.37,93.17,681,1312,1,-1,50,44,1,50,44,6,0,2,3,True,,846,1184,True,False,9,,698,907,22129,98,44,50,Right,0.197393987,0.393282521,-0.265451662,0.21007245300000002,0.30196121600000003,1.4991685469999998,3000.0,Free,Correct to incorrect,4,7
949,7,1658,1313,84.72,101.23,1323,1256,1,1,50,50,1,43,50,7,0,1,4,False,,699,932,False,False,9,,790,1395,22444,192,43,43,Right,-0.219768094,0.0471499,0.510249729,0.6924574240000001,0.840363761,-0.7784528909999999,3000.0,Free,"Correct, no change",5,8
950,7,1303,2576,86.03,99.18,1024,1821,-1,1,50,57,1,57,50,7,1,1,3,True,,720,1163,False,True,9,,708,828,22549,105,57,50,Right,-0.13759029999999997,0.115335424,0.312955951,0.5697664570000001,0.840363761,-1.077917932,3000.0,Free,Incorrect to correct,5,6
951,7,2507,7231,81.92,100.08,512,835,1,1,58,58,1,58,50,8,0,3,6,True,,784,1180,True,True,9,,676,992,22739,190,50,50,Left,-0.39541528600000003,-0.098590151,0.399572731,0.6236307839999999,1.378766306,-0.062267483,3000.0,Free,"Correct, no change",4,4
952,7,2461,2644,88.53,99.32,892,2322,1,1,58,58,2,50,58,8,0,1,2,False,,554,817,False,False,9,,1039,650,22932,193,50,50,Left,0.01923755,0.24546047,0.326429672,0.5781453520000001,1.378766306,-0.101071404,3000.0,Free,"Correct, no change",4,3
962,8,1672,3141,97.92,99.6,1312,4570,1,1,50,50,2,50,42,8,0,1,4,True,,769,1424,True,True,9,,754,652,24477,197,42,42,Right,0.608282955,0.7342101409999999,0.353377115,0.594903143,1.378766306,-0.766643002,3000.0,Free,"Correct, no change",4,4
965,8,2318,1641,96.88,101.1,5098,712,1,1,56,56,2,50,56,6,0,2,2,False,,770,1724,False,False,9,,678,442,25056,198,50,50,Right,0.543042569,0.6800781220000001,0.497738416,0.6846770209999999,0.30196121600000003,-0.221700984,3000.0,Free,"Correct, no change",4,4
967,8,1790,1967,99.07,99.8,833,1187,1,1,50,50,2,50,45,5,0,1,0,True,,769,706,True,True,9,,722,1282,25450,198,45,45,Right,0.680423766,0.794067662,0.37262528799999994,0.606872993,-0.23644132899999998,-0.66710251,3000.0,Free,"Correct, no change",3,6
969,8,2676,1674,40.35,50.42,934,488,-1,-1,50,50,1,50,54,4,1,1,4,False,,695,1200,True,True,9,,892,1025,25700,53,54,54,Right,-3.003148777,-2.262309407,-4.379748741,-2.348483065,-0.7748438740000001,0.080294748,3000.0,Free,"Incorrect, no change",4,7
970,8,1549,6679,75.63,100.98,932,671,1,1,55,55,1,55,50,5,0,1,5,True,,348,1206,True,True,9,,1223,932,25887,187,50,50,Left,-0.789994157,-0.425984765,0.48618951200000005,0.6774951109999999,-0.23644132899999998,-0.870401312,3000.0,Free,"Correct, no change",5,6
974,8,1734,1417,97.58,100.6,531,1907,1,1,57,57,1,57,50,7,0,1,3,True,,896,1488,True,True,9,,567,560,26286,198,50,50,Left,0.586954367,0.716513134,0.449617982,0.654752395,0.840363761,-0.714342065,3000.0,Free,"Correct, no change",6,5
975,8,3457,3783,82.4,101.2,882,1205,1,1,50,50,2,50,43,7,0,1,4,True,,904,1242,True,True,9,,718,696,26477,191,43,43,Left,-0.365304339,-0.073606142,0.507362503,0.690661946,0.840363761,0.739117838,3000.0,Free,"Correct, no change",4,7
984,0,1268,3462,98.05,99.88,9144,1678,1,1,50,50,2,42,50,8,0,2,2,False,,729,654,False,False,10,,918,1092,586,198,42,42,Left,0.669648565,0.703513425,0.560000601,0.657271694,0.859325508,-0.390938651,3000.0,Free,"Correct, no change",2,5
985,0,2026,1527,98.47,100.65,2637,3138,1,1,57,57,1,57,50,7,0,2,3,True,,862,1184,True,True,10,,745,924,785,199,50,50,Right,0.6914002229999999,0.723268756,0.602418618,0.692384146,0.36416538299999995,-0.127122184,3000.0,Free,"Correct, no change",3,4
990,0,3760,1537,85.4,100.98,2266,7338,-1,-1,45,45,1,50,45,5,1,1,3,True,,930,1344,False,False,10,,765,928,1553,7,50,50,Left,0.014509326000000001,0.10850166900000001,0.620597768,0.707432339,-0.626154867,0.476384087,3000.0,Free,"Incorrect, no change",4,4
991,0,3004,1584,99.0,89.6,3629,1116,-1,-1,44,44,0,44,50,6,1,1,2,False,,816,820,True,True,10,,880,1274,1558,5,50,50,Right,0.718848745,0.748198102,-0.006307468,0.188497665,-0.130994742,0.21326370600000003,3000.0,Free,"Incorrect, no change",2,5
994,0,1526,2408,96.95,98.0,21447,1133,1,-1,50,41,1,41,50,9,0,1,1,False,,950,445,False,True,10,,743,2086,1792,99,41,50,Left,0.612679935,0.651773272,0.456434534,0.571542592,1.3544856330000001,-0.30114359999999996,3000.0,Free,Correct to incorrect,3,6
1001,0,1905,1185,96.87,101.27,2300,10635,1,1,57,57,1,50,57,7,0,1,3,False,,822,812,False,False,10,,710,1296,3048,198,50,50,Left,0.6085367620000001,0.648010352,0.636573385,0.7206565090000001,0.36416538299999995,-0.169235367,3000.0,Free,"Correct, no change",2,3
1002,1,1206,3904,98.4,101.18,9665,13041,-1,-1,43,43,1,50,43,7,1,1,2,True,,882,514,False,False,10,,821,1145,3048,0,50,50,Left,0.6877749470000001,0.7199762,0.631615435,0.716552457,0.36416538299999995,-0.41251730700000006,3000.0,Free,"Incorrect, no change",2,4
1004,1,1273,1415,97.22,100.17,2894,1515,1,1,50,50,2,50,42,8,0,2,2,True,,856,1352,True,True,10,,800,574,3445,198,42,42,Left,0.626663144,0.664473128,0.575976218,0.6704958639999999,0.859325508,-0.389198437,3000.0,Free,"Correct, no change",2,2
1006,1,1878,1476,95.72,101.52,1692,3740,-1,-1,43,43,1,50,43,7,1,1,2,True,,956,1471,False,False,10,,761,570,3646,2,50,50,Left,0.54897865,0.593918374,0.6503454679999999,0.7320566559999999,0.36416538299999995,-0.17863252300000002,3000.0,Free,"Incorrect, no change",2,1
1010,1,3635,11997,98.0,101.5,2345,6731,1,1,50,50,1,42,50,8,0,0,3,False,,438,984,False,False,10,,574,1488,4286,199,42,42,Left,0.667059081,0.7011616,0.6492437010000001,0.731144644,0.859325508,0.43287873299999996,3000.0,Free,"Correct, no change",1,4
1019,1,9567,1517,3.5,61.75,3818,261,-1,-1,41,41,1,41,50,9,1,2,3,False,,766,679,True,True,10,,796,1904,5515,67,50,50,Right,-4.227064083,-3.743787878,-1.540517559,-1.08147867,1.3544856330000001,2.497468815,3000.0,Free,"Incorrect, no change",4,3
1020,1,6505,10913,92.6,101.42,7578,732,1,1,60,60,1,50,60,10,0,2,4,False,,844,1036,False,False,10,,786,1518,5711,196,50,50,Right,0.387394901,0.447164486,0.644836635,0.727496597,1.8496457590000002,1.431761662,3000.0,Free,"Correct, no change",2,4
1021,1,11621,10464,95.95,101.35,14824,7361,1,1,59,59,1,50,59,9,0,1,2,False,,792,636,False,False,10,,780,1049,5908,197,50,50,Left,0.5608902720000001,0.60473677,0.640980451,0.724304556,1.3544856330000001,3.2123487930000003,3000.0,Free,"Correct, no change",2,2
1022,1,1245,830,94.05,97.35,921,847,1,1,59,59,2,59,50,9,0,1,3,True,,967,1293,True,True,10,,640,864,6103,195,50,50,Right,0.462489912,0.515367415,0.42062711700000005,0.54190221,1.3544856330000001,-0.398943636,3000.0,Free,"Correct, no change",3,2
1024,2,1540,1718,50.88,101.22,1021,21246,1,1,59,59,1,50,59,9,0,1,3,False,,816,1560,False,False,10,,801,1102,6303,175,50,50,Left,-1.773269844,-1.515198394,0.6338189679999999,0.71837648,1.3544856330000001,-0.29627100100000003,3000.0,Free,"Correct, no change",1,3
1026,2,1430,2201,97.88,92.02,2727,2508,1,1,50,50,1,50,42,8,0,1,2,True,,1198,1020,True,True,10,,498,588,6692,194,42,42,Right,0.660844322,0.6955172190000001,0.12700629900000002,0.298851084,0.859325508,-0.334555712,3000.0,Free,"Correct, no change",1,4
1031,2,2534,2371,79.63,83.35,1961,1458,1,1,50,50,1,41,50,9,0,1,3,False,,954,1410,False,False,10,,782,1349,7251,180,41,41,Left,-0.28431703,-0.16289895,-0.35060955299999996,-0.096506001,1.3544856330000001,0.049683575,3000.0,Free,"Correct, no change",4,4
1034,2,1131,2312,98.67,101.13,2235,6446,1,1,50,50,2,50,40,10,0,1,3,True,,502,1500,True,True,10,,812,981,7744,199,40,40,Right,0.7017581559999999,0.732676056,0.6288610179999999,0.714272427,1.8496457590000002,-0.438620519,3000.0,Free,"Correct, no change",2,4
1038,2,3915,2158,98.35,101.23,1413,7570,1,1,59,59,1,59,50,9,0,1,1,True,,568,578,True,True,10,,934,1060,8345,199,50,50,Right,0.685185464,0.717624375,0.634369851,0.7188324859999999,1.3544856330000001,0.530330726,3000.0,Free,"Correct, no change",1,3
1039,2,11641,3418,21.68,100.33,1752,804,-1,1,42,50,0,50,42,8,1,1,2,True,,806,1225,False,True,10,,892,966,8484,139,50,42,Right,-3.285528007,-2.888664265,0.584790351,0.6777919579999999,0.859325508,3.21930965,3000.0,Free,Incorrect to correct,2,2
1043,2,2134,1490,63.53,98.92,993,3533,-1,1,50,59,0,59,50,9,1,1,3,True,,968,1134,False,True,10,,724,1182,9006,117,59,50,Left,-1.118130606,-0.9201866390000001,0.507115801,0.613495131,1.3544856330000001,-0.08953355800000001,3000.0,Free,Incorrect to correct,4,4
1045,3,1356,2595,72.82,70.35,1613,1156,1,1,60,60,2,60,50,10,0,1,3,True,,982,1630,True,True,10,,755,824,9374,171,50,50,Left,-0.637004636,-0.48321753100000003,-1.06675789,-0.6893136259999999,1.8496457590000002,-0.36031088200000005,3000.0,Free,"Correct, no change",3,5
1046,3,1167,1398,72.4,98.62,543,1415,1,1,50,50,1,41,50,9,0,1,4,False,,940,1058,False,False,10,,746,1075,9559,185,41,41,Left,-0.658756294,-0.502972862,0.49058930100000003,0.599814955,1.3544856330000001,-0.42609097700000004,3000.0,Free,"Correct, no change",3,2
1048,3,1169,1388,87.2,101.78,793,778,1,1,58,58,1,58,50,8,0,1,2,True,,974,1236,True,True,10,,750,536,9941,193,50,50,Left,0.10773072,0.193167373,0.664668435,0.743912809,0.859325508,-0.425394892,3000.0,Free,"Correct, no change",2,2
1052,3,1166,2536,99.17,74.67,1593,719,-1,-1,42,42,0,42,50,8,1,1,3,False,,749,933,True,True,10,,972,1430,10438,12,50,50,Right,0.727652987,0.756194307,-0.8287762890000001,-0.492319092,0.859325508,-0.42643902,3000.0,Free,"Incorrect, no change",2,6
1054,3,1402,1460,92.72,100.93,1227,5337,1,1,50,50,2,41,50,9,0,1,2,False,,729,1048,False,False,10,,976,1000,10816,196,41,41,Right,0.39360966,0.452808867,0.617843351,0.70515231,1.3544856330000001,-0.344300912,3000.0,Free,"Correct, no change",3,4
1060,3,1162,1241,99.33,98.03,784,12207,1,1,50,50,2,42,50,8,0,1,3,False,,693,1120,False,False,10,,980,1270,11825,198,42,42,Right,0.7359393329999999,0.763720148,0.458087184,0.572910609,0.859325508,-0.427831191,3000.0,Free,"Correct, no change",2,3
1062,3,3942,1999,55.45,63.63,403,1668,-1,1,43,50,1,43,50,7,1,1,3,False,,798,1167,True,False,10,,894,1178,12107,103,50,43,Right,-1.536591084,-1.300241578,-1.436951492,-0.9957495679999999,0.36416538299999995,0.539727883,3000.0,Free,Incorrect to correct,2,4
1066,4,1706,1614,50.87,52.65,847,975,-1,1,43,50,1,50,43,7,1,1,3,True,,741,1420,False,True,10,,962,1052,12783,100,50,43,Right,-1.773787741,-1.515668759,-2.041821395,-1.496444008,0.36416538299999995,-0.23849589100000002,3000.0,Free,Incorrect to correct,2,4
1067,4,1695,1152,3.65,97.87,3388,1227,1,1,50,50,1,42,50,8,0,1,3,False,,790,930,False,False,10,,896,1122,12932,149,42,42,Right,-4.219295633,-3.736732403,0.44927305,0.565614515,0.859325508,-0.242324362,3000.0,Free,"Correct, no change",3,2
1068,4,1368,3218,98.58,99.87,812,2350,1,1,50,50,2,42,50,8,0,1,3,False,,732,914,False,False,10,,906,1039,13130,198,42,42,Right,0.697097086,0.728442771,0.559449718,0.656815688,0.859325508,-0.356134368,3000.0,Free,"Correct, no change",3,2
1072,4,1712,1714,95.55,97.43,1280,1174,1,1,50,50,2,44,50,6,0,2,3,False,,654,766,False,False,10,,1005,871,13891,195,44,44,Right,0.5401744070000001,0.5859221689999999,0.425034184,0.545550257,-0.130994742,-0.23640763399999998,3000.0,Free,"Correct, no change",3,1
1073,4,1345,1344,94.53,97.08,692,835,-1,-1,45,45,0,50,45,5,1,2,5,True,,976,1149,False,False,10,,690,1130,13894,3,50,50,Left,0.48734895,0.537944936,0.40575326700000003,0.529590052,-0.626154867,-0.36413935299999994,3000.0,Free,"Incorrect, no change",2,2
1076,4,1325,1511,96.3,98.65,643,1353,1,1,50,50,1,45,50,5,0,1,4,False,,920,1226,False,False,10,,771,1093,14481,197,45,45,Left,0.579016654,0.621199545,0.492241951,0.601182973,-0.626154867,-0.37110021,3000.0,Free,"Correct, no change",3,5
1080,4,2189,1448,66.87,66.32,1235,629,-1,1,47,50,0,47,50,3,1,1,2,False,,1008,1250,True,False,10,,604,1027,15130,99,50,47,Right,-0.945153131,-0.7630847209999999,-1.288763875,-0.87308399,-1.616475118,-0.070391202,3000.0,Free,Incorrect to correct,3,2
1087,5,1627,1491,97.02,93.07,6806,883,1,1,50,50,2,50,47,3,0,1,2,True,,928,1214,True,True,10,,787,868,16240,194,47,47,Left,0.616305212,0.655065827,0.184849049,0.3467317,-1.616475118,-0.265991274,3000.0,Free,"Correct, no change",3,2
1089,5,1830,2574,85.98,99.92,1125,2078,-1,-1,50,50,1,52,50,2,1,1,2,True,,944,1396,False,False,10,,733,1138,16445,7,52,52,Left,0.044547330999999996,0.135782841,0.562204134,0.659095718,-2.1116352430000003,-0.19533857899999998,3000.0,Free,"Incorrect, no change",2,3
1097,5,2667,1844,59.05,99.88,421,1829,-1,-1,50,50,1,50,54,4,1,1,1,False,,716,1740,True,True,10,,938,820,17472,20,54,54,Right,-1.3501482969999998,-1.130910169,0.560000601,0.657271694,-1.121314992,0.095973271,3000.0,Free,"Incorrect, no change",3,4
1099,5,3121,1662,97.38,98.37,1413,1092,1,1,50,50,2,50,45,5,0,1,2,True,,775,1090,True,True,10,,868,540,17867,197,45,45,Right,0.63494949,0.6719989679999999,0.476817217,0.588414809,-0.626154867,0.25398471699999997,3000.0,Free,"Correct, no change",3,3
1102,5,2075,1884,54.55,55.87,1001,1814,-1,-1,50,50,1,50,53,3,1,1,2,False,,882,1578,True,True,10,,764,839,18297,44,53,53,Right,-1.5832017809999999,-1.34257443,-1.864436961,-1.349610119,-1.616475118,-0.110068085,3000.0,Free,"Incorrect, no change",4,6
1103,5,1357,1459,96.37,101.15,12121,5264,1,1,54,54,1,50,54,4,0,1,3,False,,854,1060,False,False,10,,662,851,18495,198,50,50,Left,0.5826419310000001,0.624492101,0.629962785,0.7151844390000001,-1.121314992,-0.359962839,3000.0,Free,"Correct, no change",4,2
1104,5,1291,2088,82.23,99.68,1845,3801,-1,-1,50,50,1,54,50,4,1,1,2,True,,918,1638,False,False,10,,772,839,18503,8,54,54,Left,-0.14966390599999999,-0.040604044,0.548982934,0.648151577,-1.121314992,-0.382933666,3000.0,Free,"Incorrect, no change",2,4
1111,6,1855,1150,98.6,100.13,1938,4567,1,1,50,50,2,42,50,8,0,1,3,False,,922,1320,False,False,10,,628,1216,19387,199,42,42,Right,0.6981328790000001,0.7293835009999999,0.573772684,0.668671841,0.859325508,-0.18663750899999998,3000.0,Free,"Correct, no change",3,3
1113,6,1536,988,95.03,87.42,422,22264,1,1,50,50,2,50,43,7,0,1,3,True,,961,1471,True,True,10,,700,1104,19768,190,43,43,Right,0.513243782,0.561463187,-0.126400036,0.08908838599999999,0.36416538299999995,-0.297663172,3000.0,Free,"Correct, no change",3,2
1114,6,736,1419,88.62,87.1,985,1239,1,1,56,56,2,56,50,6,0,1,3,True,,736,1228,True,True,10,,780,1214,19955,187,50,50,Right,0.18127204100000002,0.25995920699999997,-0.144028302,0.074496198,-0.130994742,-0.576097438,3000.0,Free,"Correct, no change",2,4
1116,6,1001,1244,97.78,100.4,1122,795,1,1,55,55,2,50,55,5,0,1,3,False,,754,1422,False,False,10,,672,994,20351,198,50,50,Left,0.655665356,0.690813569,0.588646534,0.6809839990000001,-0.626154867,-0.48386608700000006,3000.0,Free,"Correct, no change",3,2
1119,6,1845,1995,95.0,97.5,1514,2410,1,1,55,55,1,50,55,5,0,1,3,False,,955,1240,False,False,10,,770,1263,20743,195,50,50,Right,0.511690092,0.5600520920000001,0.42889036700000005,0.548742298,-0.626154867,-0.190117937,3000.0,Free,"Correct, no change",3,4
1120,6,1095,1653,59.28,73.2,1122,1079,1,1,50,50,2,45,50,5,0,1,2,False,,762,1150,False,False,10,,904,1343,20908,165,45,45,Right,-1.338236674,-1.120091774,-0.9097561390000001,-0.559351955,-0.626154867,-0.451150061,3000.0,Free,"Correct, no change",3,5
1123,6,971,3212,85.65,100.25,797,827,1,1,50,50,1,45,50,5,0,1,2,False,,780,947,False,False,10,,780,834,21416,192,45,45,Left,0.027456742000000003,0.120260795,0.5803832839999999,0.6741439109999999,-0.626154867,-0.494307372,3000.0,Free,"Correct, no change",5,2
1130,7,849,1292,98.23,100.8,912,2542,1,1,50,50,1,45,50,5,0,1,3,False,,972,1474,False,False,10,,678,975,22416,199,45,45,Left,0.678970704,0.711979995,0.610681868,0.6992242340000001,-0.626154867,-0.536768598,3000.0,Free,"Correct, no change",2,4
1133,7,1313,1681,6.22,41.2,7426,622,-1,-1,45,45,0,45,50,5,1,2,4,False,,965,1270,True,True,10,,660,1190,22771,75,50,50,Left,-4.086196199,-3.615848592,-2.672582815,-2.018570724,-0.626154867,-0.375276724,3000.0,Free,"Incorrect, no change",4,2
1137,7,1804,1213,91.2,99.52,12779,1738,1,1,50,50,2,45,50,5,0,1,2,False,,934,990,False,False,10,,777,936,23486,194,45,45,Left,0.314889372,0.38131338299999995,0.540168801,0.640855483,-0.626154867,-0.204387693,3000.0,Free,"Correct, no change",1,1
1140,7,1188,1715,95.25,81.55,1233,397,1,1,55,55,1,50,55,5,0,2,2,False,,911,1853,False,False,10,,712,934,23869,187,50,50,Left,0.524637508,0.571811218,-0.449768554,-0.178587057,-0.626154867,-0.41878207799999995,3000.0,Free,"Correct, no change",4,7
1143,7,1590,1816,98.2,101.23,1598,1850,1,1,50,50,2,50,46,4,0,2,2,True,,848,1723,True,True,10,,707,908,24440,199,46,46,Right,0.6774170140000001,0.7105689000000001,0.634369851,0.7188324859999999,-1.121314992,-0.27886885899999997,3000.0,Free,"Correct, no change",4,3
1146,7,2269,2197,96.77,57.92,8747,2681,1,-1,54,50,2,54,50,4,0,1,1,True,,752,1862,True,False,10,,844,446,24720,119,50,54,Right,0.6033577960000001,0.6433067020000001,-1.7515058769999998,-1.256128917,-1.121314992,-0.042547775999999995,3000.0,Free,Correct to incorrect,5,4
1149,8,1398,2260,54.68,94.43,1046,6943,-1,1,48,50,0,48,50,2,1,2,3,False,,1094,1292,True,False,10,,588,1459,25233,119,50,48,Left,-1.576469125,-1.336459685,0.259769183,0.40874849799999996,-2.1116352430000003,-0.34569308299999996,3000.0,Free,Incorrect to correct,3,3
1157,8,1310,1660,92.68,87.83,1586,326,-1,-1,45,45,1,50,45,5,1,1,3,True,,956,1549,False,False,10,,791,1129,26102,9,50,50,Left,0.39153807399999996,0.450927407,-0.103813819,0.107784626,-0.626154867,-0.37632085200000004,3000.0,Free,"Incorrect, no change",3,5
1159,8,2215,1816,64.47,74.5,487,330,1,1,57,57,1,57,50,7,0,1,3,True,,965,1412,True,True,10,,710,977,26296,169,50,50,Right,-1.069448323,-0.875972326,-0.8381413059999999,-0.500071192,0.36416538299999995,-0.061342089,3000.0,Free,"Correct, no change",3,5
1160,8,736,1213,96.75,98.18,1780,768,1,1,57,57,2,50,57,7,0,1,2,False,,936,926,False,False,10,,660,628,26493,197,50,50,Left,0.6023220029999999,0.642365972,0.466350434,0.579750697,0.36416538299999995,-0.576097438,3000.0,Free,"Correct, no change",3,1
1163,8,1195,1266,98.67,99.95,1676,828,1,1,57,57,1,50,57,7,0,1,2,False,,860,1740,False,False,10,,800,680,27008,198,50,50,Left,0.7017581559999999,0.732676056,0.5638567839999999,0.660463735,0.36416538299999995,-0.41634577799999994,3000.0,Free,"Correct, no change",4,4
1164,8,1131,1156,98.75,100.47,1045,1126,1,1,50,50,2,50,43,7,0,1,3,True,,904,1122,True,True,10,,672,868,27207,199,43,43,Right,0.705901329,0.736438976,0.592502718,0.68417604,0.36416538299999995,-0.438620519,3000.0,Free,"Correct, no change",3,2
1165,8,903,2950,98.88,64.93,786,1163,1,1,56,56,1,50,56,6,0,1,3,False,,962,1145,False,False,10,,616,1358,27388,181,50,50,Left,0.712633985,0.742553722,-1.3653366580000001,-0.936468805,-0.130994742,-0.517974285,3000.0,Free,"Correct, no change",2,3
1170,9,1655,1701,78.12,97.53,812,761,1,1,50,50,1,45,50,5,0,1,3,False,,768,1641,False,False,10,,904,1084,28049,187,45,45,Left,-0.362519421,-0.233924068,0.43054301700000003,0.550110316,-0.626154867,-0.256246075,3000.0,Free,"Correct, no change",5,4
1172,0,1634,1762,90.0,92.05,685,1020,1,1,60,60,1,60,50,10,0,4,2,True,,806,1344,True,True,11,,702,796,379,191,50,50,Left,0.714865682,0.6481575620000001,0.534273829,0.562632941,1.7654110580000002,-0.14090027800000002,3000.0,Free,"Correct, no change",2,4
1173,0,1432,1768,47.75,57.57,1692,898,1,1,50,50,2,50,40,10,0,1,2,True,,522,1519,True,True,11,,1070,946,530,151,40,40,Left,-1.63105725,-1.514138866,-1.666222268,-1.365532596,1.7654110580000002,-0.37562955299999995,3000.0,Free,"Correct, no change",4,6
1175,0,1402,2140,96.7,98.42,1902,1177,1,1,50,50,2,50,41,9,0,2,2,True,,880,642,True,True,11,,748,1114,916,197,41,41,Left,1.086881864,0.991054274,0.940803995,0.918851458,1.332644923,-0.410490336,3000.0,Free,"Correct, no change",3,5
1177,0,1745,1461,87.67,55.03,830,1178,1,-1,58,50,2,58,50,8,0,2,2,True,,842,1206,True,False,11,,435,584,1225,115,50,58,Right,0.585492891,0.528911392,-1.828323779,-1.507572633,0.899878788,-0.011915378999999999,3000.0,Free,Correct to incorrect,3,4
1180,0,1987,1420,21.12,26.02,1673,1341,-1,-1,50,50,0,50,56,6,1,2,2,False,,938,1392,True,True,11,,578,530,1683,75,56,56,Right,-3.109682758,-2.877025348,-3.6797272530000003,-3.129848799,0.034346519,0.269294941,3000.0,Free,"Incorrect, no change",3,6
1183,0,1339,1697,96.08,96.15,1254,1664,1,1,50,50,2,42,50,8,0,1,0,False,,828,644,False,False,11,,590,920,2077,196,42,42,Left,1.0524564859999999,0.959323533,0.7959337470000001,0.791910165,0.899878788,-0.483697982,3000.0,Free,"Correct, no change",3,2
1187,0,2562,1287,55.83,79.45,638,512,1,1,50,50,1,50,43,7,0,2,2,True,,800,1066,True,True,11,,626,510,2722,166,43,43,Right,-1.182416841,-1.100615667,-0.269851775,-0.141975115,0.46711265399999996,0.9374599570000001,3000.0,Free,"Correct, no change",3,4
1193,1,1429,1514,98.1,101.3,1579,1413,1,1,58,58,1,50,58,8,0,1,1,False,,510,959,False,False,11,,652,774,3522,199,50,50,Right,1.164616588,1.062704333,1.124604133,1.079904728,0.899878788,-0.379115631,3000.0,Free,"Correct, no change",3,3
1196,1,1205,1410,59.77,95.4,526,1104,1,1,57,57,2,57,50,7,0,1,2,True,,822,1002,True,True,11,,288,1103,4090,176,50,50,Right,-0.963649117,-0.8989719290000001,0.7480691279999999,0.74996921,0.46711265399999996,-0.6394094810000001,3000.0,Free,"Correct, no change",2,5
1198,1,2376,1667,58.37,59.83,1456,1315,-1,1,50,56,1,50,56,6,1,2,3,False,,810,1576,True,False,11,,722,785,4387,99,56,50,Right,-1.041383841,-0.9706219890000001,-1.5219902159999998,-1.239150516,0.034346519,0.7213231,3000.0,Free,Incorrect to correct,3,3
1204,1,1274,1471,95.42,100.47,516,483,1,1,59,59,1,59,50,9,0,2,3,True,,950,907,True,True,11,,655,1218,5287,197,50,50,Right,1.015810115,0.9255456479999999,1.0716339540000002,1.03349007,1.332644923,-0.559229679,3000.0,Free,"Correct, no change",1,4
1205,1,1426,1346,97.28,100.25,1559,2885,1,1,59,59,2,59,50,9,0,2,3,True,,1076,860,True,True,11,,440,1395,5485,198,50,50,Left,1.119086249,1.020737869,1.057593666,1.02118739,1.332644923,-0.38260171,3000.0,Free,"Correct, no change",4,4
1210,1,1405,1447,39.2,80.55,684,910,1,1,56,56,1,50,56,6,0,2,4,False,,710,1394,False,False,11,,898,1008,6289,159,50,50,Left,-2.105794317,-1.9517160130000002,-0.19965033399999998,-0.080461713,0.034346519,-0.40700425799999995,3000.0,Free,"Correct, no change",3,4
1211,1,1397,3441,97.2,100.88,995,4394,1,1,56,56,2,50,56,6,0,1,2,False,,612,1096,False,False,11,,974,1094,6487,198,50,50,Left,1.114644265,1.01664358,1.0977999459999999,1.056417793,0.034346519,-0.416300467,3000.0,Free,"Correct, no change",3,4
1218,2,2681,2622,84.68,97.25,1193,1100,-1,-1,46,46,0,50,46,4,1,1,3,True,,524,1348,False,False,11,,886,943,7441,8,50,50,Left,0.41947373,0.37588733700000004,0.8661351890000001,0.853423567,-0.8311857509999999,1.075741065,3000.0,Free,"Incorrect, no change",3,5
1220,2,1802,1643,48.72,92.85,970,622,1,1,55,55,2,55,50,5,0,2,2,True,,830,1002,True,True,11,,587,1158,7800,170,50,50,Right,-1.577198191,-1.46449561,0.585329423,0.60736996,-0.39841961600000003,0.05432011,3000.0,Free,"Correct, no change",1,3
1221,2,1649,2125,82.7,63.3,1022,844,-1,1,50,54,0,50,54,4,1,2,4,False,,984,1489,True,False,11,,576,900,7889,89,54,50,Right,0.30953462,0.27455368199999997,-1.3005365770000001,-1.045103694,-0.8311857509999999,-0.123469886,3000.0,Free,Incorrect to correct,2,3
1223,2,1652,3249,81.95,84.72,453,588,1,1,55,55,2,55,50,5,0,3,3,True,,796,1020,True,True,11,,736,864,8224,182,50,50,Right,0.267891017,0.236169722,0.06647695,0.152730001,-0.39841961600000003,-0.11998380800000001,3000.0,Free,"Correct, no change",1,3
1226,2,3172,1123,91.47,92.7,771,891,1,1,50,50,1,47,50,3,0,2,3,False,,1131,1166,False,False,11,,576,738,8773,191,47,47,Left,0.796487143,0.723390124,0.575756499,0.598981769,-1.2639518859999999,1.646295887,3000.0,Free,"Correct, no change",2,3
1227,2,2616,1422,47.93,93.6,1103,878,1,1,53,53,2,50,53,3,0,1,4,False,,1274,1216,False,False,11,,354,1075,8942,169,50,50,Right,-1.621062786,-1.504926715,0.6331940420000001,0.649310916,-1.2639518859999999,1.000209367,3000.0,Free,"Correct, no change",3,3
1232,2,4117,1248,87.9,94.18,1315,1277,1,1,55,55,1,55,50,5,0,2,4,True,,836,1418,True,True,11,,754,916,9495,190,50,50,Left,0.598263596,0.5406824729999999,0.670209347,0.681745255,-0.39841961600000003,2.7444105660000004,3000.0,Free,"Correct, no change",4,4
1235,3,1359,1572,91.53,89.78,2316,1016,1,1,50,50,1,50,47,3,0,2,4,True,,950,1035,True,True,11,,622,1332,10043,189,47,47,Right,0.799818631,0.726460841,0.389403581,0.435691648,-1.2639518859999999,-0.46045745899999996,3000.0,Free,"Correct, no change",1,5
1240,3,3130,1844,81.7,69.25,759,621,1,1,50,50,1,46,50,4,0,3,4,False,,596,1261,False,False,11,,925,1076,10540,174,46,46,Right,0.254009816,0.223375068,-0.920810597,-0.7123721120000001,-0.8311857509999999,1.597490791,3000.0,Free,"Correct, no change",2,3
1245,3,2259,1747,77.65,79.3,1508,621,1,-1,50,48,2,50,48,2,0,2,4,True,,940,1082,True,False,11,,604,1015,11409,98,48,50,Left,0.029134364,0.016101683000000002,-0.279424699,-0.150363306,-1.696718021,0.585366044,3000.0,Free,Correct to incorrect,2,5
1247,3,2047,1113,76.05,90.77,1220,721,1,1,50,50,2,50,49,1,0,3,3,True,,848,1203,True,True,11,,616,1026,11691,183,49,49,Right,-0.059705321,-0.065784099,0.45258487799999997,0.49105371,-2.1294841559999997,0.339016508,3000.0,Free,"Correct, no change",3,4
1249,3,2252,1772,57.87,54.38,557,593,1,-1,51,50,1,51,50,1,0,2,4,True,,796,1073,True,False,11,,506,1086,11794,100,50,51,Right,-1.069146243,-0.996211295,-1.8698064490000001,-1.543921461,-2.1294841559999997,0.577231862,3000.0,Free,Correct to incorrect,3,3
1251,3,1217,1790,80.37,96.73,703,1592,1,1,52,52,1,52,50,2,0,2,4,True,,856,1263,True,True,11,,562,1030,12080,188,50,50,Left,0.180161828,0.15530751199999998,0.832949053,0.824344505,-1.696718021,-0.625465168,3000.0,Free,"Correct, no change",2,5
1252,3,1283,1498,72.1,77.75,701,690,1,-1,52,50,2,52,50,2,0,2,4,True,,846,1267,True,False,11,,672,998,12177,97,50,52,Right,-0.279028294,-0.267939623,-0.37834491200000003,-0.23704128100000002,-1.696718021,-0.548771444,3000.0,Free,Correct to incorrect,3,5
1258,4,2289,1030,87.13,88.3,414,357,1,1,54,54,1,54,50,4,0,2,3,True,,858,1849,True,True,11,,671,840,12701,187,50,50,Right,0.5555094970000001,0.501274941,0.294950732,0.35292816200000005,-0.8311857509999999,0.620226828,3000.0,Free,"Correct, no change",3,4
1259,4,1488,1465,71.87,80.18,434,391,-1,1,46,50,1,50,46,4,1,2,4,True,,997,1172,False,True,11,,662,1186,12805,104,50,46,Left,-0.291798999,-0.279710704,-0.223263546,-0.101152585,-0.8311857509999999,-0.31055609,3000.0,Free,Incorrect to correct,2,5
1261,4,3896,1418,88.0,86.87,449,522,-1,-1,50,50,1,55,50,5,1,2,4,True,,1104,1510,False,False,11,,564,952,13006,12,55,55,Left,0.603816076,0.545800335,0.203688858,0.27296074,-0.39841961600000003,2.487602795,3000.0,Free,"Incorrect, no change",1,2
1262,4,1495,1298,94.35,98.22,1036,1071,1,1,56,56,1,50,56,6,0,2,2,False,,718,657,False,False,11,,582,1038,13202,196,50,50,Left,0.9563985759999999,0.870784531,0.928040097,0.9076672029999999,0.034346519,-0.302421908,3000.0,Free,"Correct, no change",2,3
1266,4,1486,1820,79.13,87.27,316,946,-1,1,50,56,1,50,56,6,1,1,5,False,,1099,1081,True,False,11,,542,1432,13777,103,56,50,Right,0.111311072,0.091846031,0.229216655,0.29532925,0.034346519,-0.312880143,3000.0,Free,Incorrect to correct,3,5
1269,4,2535,1582,84.17,87.87,449,832,-1,1,50,56,0,56,50,6,1,2,3,True,,728,1006,False,True,11,,1111,1394,14259,100,56,50,Left,0.39115608,0.34978624399999997,0.26750835100000003,0.328882015,0.034346519,0.906085252,3000.0,Free,Incorrect to correct,4,5
1274,4,1435,1423,64.17,73.32,429,331,1,1,50,50,1,50,43,7,0,2,5,True,,912,1518,True,True,11,,784,1102,15049,168,43,43,Left,-0.719339983,-0.6737860290000001,-0.661065264,-0.48477252600000004,0.46711265399999996,-0.372143475,3000.0,Free,"Correct, no change",0,2
1280,5,1492,1505,55.55,85.82,829,861,-1,1,46,50,0,50,46,4,1,2,4,True,,991,1287,False,True,11,,632,1228,15963,114,50,46,Left,-1.1979637859999999,-1.114945679,0.13667839099999998,0.214243402,-0.8311857509999999,-0.305907986,3000.0,Free,Incorrect to correct,3,3
1281,5,1373,1450,87.85,85.87,611,807,1,1,55,55,1,55,50,5,0,2,4,True,,975,1132,True,True,11,,736,1090,16148,185,50,50,Left,0.595487356,0.538123543,0.139869366,0.21703946600000001,-0.39841961600000003,-0.444189094,3000.0,Free,"Correct, no change",1,3
1283,5,2151,1320,69.57,76.55,830,487,1,-1,50,46,1,50,46,4,0,2,5,True,,670,1586,True,False,11,,970,957,16348,95,46,50,Left,-0.419506046,-0.397421515,-0.454928303,-0.30414681,-0.8311857509999999,0.45986722399999996,3000.0,Free,Correct to incorrect,3,6
1284,5,1296,1530,88.05,90.77,809,518,1,1,50,50,2,46,50,4,0,2,4,False,,966,1008,False,False,11,,529,1140,16537,189,46,46,Right,0.606592316,0.548359265,0.45258487799999997,0.49105371,-0.8311857509999999,-0.533665105,3000.0,Free,"Correct, no change",3,3
1288,5,2419,1142,80.47,90.13,526,399,-1,-1,50,50,0,53,50,3,1,2,4,True,,476,1560,False,False,11,,956,782,16930,13,53,53,Left,0.185714309,0.160425374,0.411740403,0.455264094,-1.2639518859999999,0.7712902229999999,3000.0,Free,"Incorrect, no change",2,2
1290,5,1305,2948,83.4,95.75,691,2085,1,1,50,50,1,50,45,5,0,0,4,True,,953,1497,True,True,11,,340,766,17129,188,45,45,Right,0.34840198200000005,0.310378712,0.77040595,0.7695416559999999,-0.39841961600000003,-0.52320687,3000.0,Free,"Correct, no change",2,4
1295,5,1045,1264,82.6,56.38,361,1856,1,-1,57,50,2,57,50,7,0,1,5,True,,797,1262,True,False,11,,718,1088,17806,112,50,57,Left,0.303982139,0.269435821,-1.742167464,-1.432078912,0.46711265399999996,-0.82533366,3000.0,Free,Correct to incorrect,4,3
1297,6,2374,1701,86.55,95.18,811,466,1,1,56,56,2,50,56,6,0,2,3,False,,1096,792,False,False,11,,431,940,18183,190,50,50,Right,0.5233051120000001,0.471591345,0.73402884,0.7376665290000001,0.034346519,0.7189990479999999,3000.0,Free,"Correct, no change",2,2
1301,6,2198,1296,87.85,87.53,900,845,-1,-1,50,50,0,50,55,5,1,2,4,False,,902,1172,True,True,11,,642,1178,18582,12,55,55,Right,0.595487356,0.538123543,0.245809723,0.30986878100000004,-0.39841961600000003,0.514482451,3000.0,Free,"Incorrect, no change",4,5
1310,6,1108,1214,94.15,89.58,953,554,-1,-1,50,50,1,54,50,4,1,2,4,True,,927,1498,False,False,11,,666,790,19937,7,54,54,Left,0.945293615,0.8605488090000001,0.37663968200000003,0.424507394,-0.8311857509999999,-0.752126014,3000.0,Free,"Incorrect, no change",3,4
1312,6,2310,1299,56.97,50.18,872,779,-1,1,45,50,1,50,45,5,1,5,4,True,,956,933,False,True,11,,424,892,20223,96,50,45,Right,-1.119118565,-1.042272048,-2.137848317,-1.778790813,-0.39841961600000003,0.644629376,3000.0,Free,Incorrect to correct,2,4
1313,6,2195,1576,45.03,59.78,732,1626,1,1,56,56,1,50,56,6,0,2,3,False,,370,1125,False,False,11,,1016,870,20374,151,50,50,Left,-1.782084715,-1.653344695,-1.52518119,-1.24194658,0.034346519,0.510996373,3000.0,Free,"Correct, no change",3,3
1315,6,1654,1385,95.97,94.87,2515,1845,1,1,57,57,1,50,57,7,0,4,3,False,,766,1340,False,False,11,,610,1180,20660,194,50,50,Left,1.046348757,0.9536938859999999,0.714244797,0.720330934,0.46711265399999996,-0.117659755,3000.0,Free,"Correct, no change",3,5
1316,6,1263,1443,84.82,92.12,1115,779,1,1,57,57,2,50,57,7,0,4,2,False,,751,722,False,False,11,,840,776,20848,188,50,50,Left,0.42724720200000005,0.38305234299999996,0.538741193,0.56654743,0.46711265399999996,-0.572011966,3000.0,Free,"Correct, no change",1,2
1320,7,1798,1257,91.7,76.52,520,885,1,-1,50,44,1,50,44,6,0,2,5,True,,650,1280,True,False,11,,854,1182,21429,106,44,50,Right,0.809257848,0.735161205,-0.45684288799999995,-0.305824448,0.034346519,0.049672005,3000.0,Free,Correct to incorrect,2,4
1322,7,1638,1017,81.42,93.15,1044,543,1,1,57,57,1,57,50,7,0,1,4,True,,432,1164,True,True,11,,1229,1008,21721,186,50,50,Left,0.23846287100000002,0.209045057,0.60447527,0.6241463429999999,0.46711265399999996,-0.136252173,3000.0,Free,"Correct, no change",3,4
1324,7,1307,1145,86.08,93.78,538,1316,1,1,58,58,1,50,58,8,0,1,2,False,,819,1230,False,False,11,,764,814,21917,189,50,50,Right,0.49720845399999997,0.44753739600000003,0.64468155,0.659376745,0.899878788,-0.520882817,3000.0,Free,"Correct, no change",4,5
1329,7,1410,1309,90.08,92.32,320,862,1,1,50,50,2,42,50,8,0,2,4,False,,568,1555,False,False,11,,820,826,22672,191,42,42,Left,0.719307667,0.652251851,0.551505092,0.577731685,0.899878788,-0.401194127,3000.0,Free,"Correct, no change",1,5
1332,7,1548,1552,92.2,92.08,563,726,1,1,58,58,2,58,50,8,0,1,4,True,,736,1124,True,True,11,,626,900,23066,192,50,50,Left,0.837020249,0.760750512,0.536188413,0.564310579,0.899878788,-0.240834524,3000.0,Free,"Correct, no change",4,4
1333,7,1307,1368,91.7,90.55,2160,1056,1,1,57,57,1,57,50,7,0,2,4,True,,652,1531,True,True,11,,852,876,23256,190,50,50,Right,0.809257848,0.735161205,0.43854459,0.47875103,0.46711265399999996,-0.520882817,3000.0,Free,"Correct, no change",3,4
1337,7,886,2358,81.48,93.83,845,1709,1,1,50,50,1,43,50,7,0,1,2,False,,918,991,False,False,11,,490,970,23917,186,43,43,Right,0.24179436,0.212115773,0.647872525,0.662172809,0.46711265399999996,-1.010095812,3000.0,Free,"Correct, no change",4,2
1344,8,1422,1335,51.17,54.07,794,809,-1,1,50,57,1,50,57,7,1,2,4,False,,708,814,True,False,11,,891,1342,24786,101,57,50,Right,-1.441162424,-1.339108007,-1.889590492,-1.5612570559999999,0.46711265399999996,-0.38724981399999997,3000.0,Free,Incorrect to correct,3,4
1346,8,1457,2168,74.65,89.88,1470,760,-1,1,50,59,0,50,59,9,1,1,4,False,,882,1746,True,False,11,,530,592,24991,106,59,50,Left,-0.137440046,-0.137434158,0.39578553,0.441283776,1.332644923,-0.3465789,3000.0,Free,Incorrect to correct,4,3
1347,8,1237,1382,74.78,86.18,657,527,1,1,60,60,1,60,50,10,0,1,1,True,,782,1448,True,True,11,,832,714,25171,180,50,50,Right,-0.130221821,-0.130780938,0.159653408,0.23437506100000002,1.7654110580000002,-0.602224645,3000.0,Free,"Correct, no change",2,4
1349,8,1615,2529,32.0,90.38,1151,966,-1,1,41,50,0,41,50,9,1,3,4,False,,598,872,True,False,11,,846,1230,25476,129,50,41,Right,-2.5055728999999998,-2.320202031,0.427695276,0.46924441299999997,1.332644923,-0.162978774,3000.0,Free,Incorrect to correct,4,4
1350,8,1174,1539,86.78,94.05,1568,1124,1,1,50,50,1,40,50,10,0,1,1,False,,574,386,False,False,11,,652,1226,25666,190,40,40,Left,0.536075816,0.483362426,0.6619128129999999,0.67447549,1.7654110580000002,-0.6754322909999999,3000.0,Free,"Correct, no change",2,1
1352,8,1168,1180,70.45,93.17,812,1064,1,1,50,50,1,50,39,11,0,2,3,True,,852,1261,True,True,11,,718,918,25948,181,39,39,Right,-0.370644219,-0.352384335,0.60575166,0.625264768,2.1981771930000003,-0.682404447,3000.0,Free,"Correct, no change",4,6
1355,8,1324,1855,90.95,89.05,802,1250,1,1,60,60,2,50,60,10,0,1,4,False,,966,916,False,False,11,,781,1268,26408,189,50,50,Left,0.767614245,0.696777245,0.342815352,0.39486911799999996,1.7654110580000002,-0.501128373,3000.0,Free,"Correct, no change",2,5
1549,0,1105,1825,91.37,91.48,699,377,1,1,56,56,2,56,50,6,0,3,3,True,,416,848,True,True,13,,1144,1150,190,190,50,50,Left,1.021069425,0.983622861,0.76859654,0.874914619,1.034787098,-0.889458759,3000.0,Free,"Correct, no change",1,2
1555,0,2925,9952,66.18,56.0,269,569,1,-1,50,45,2,50,45,5,0,3,4,True,,510,1296,True,False,13,,1055,1339,1043,104,45,50,Left,-0.776865184,-0.7096017020000001,-1.816102458,-1.555876379,0.472790657,-0.35108055899999996,3000.0,Free,Correct to incorrect,2,5
1556,0,4390,2989,66.43,87.98,460,673,-1,-1,50,50,0,50,54,4,1,3,2,False,,991,1110,True,True,13,,552,1442,1065,22,54,54,Right,-0.75902145,-0.6927971709999999,0.513623415,0.635124076,-0.08920578400000001,0.08228431,3000.0,Free,"Incorrect, no change",1,4
1562,0,10635,3748,78.05,70.35,762,255,-1,-1,46,46,0,50,46,4,1,4,4,True,,537,1220,False,False,13,,912,1230,1888,24,50,50,Left,0.070355293,0.088277439,-0.7707126440000001,-0.57273515,-0.08920578400000001,1.929631485,3000.0,Free,"Incorrect, no change",2,3
1564,0,4839,3055,85.18,84.88,491,428,1,1,55,55,2,50,55,5,0,1,3,False,,518,1032,False,False,13,,774,859,2246,184,50,50,Right,0.579258578,0.5675426689999999,0.287790075,0.422738165,0.472790657,0.215103987,3000.0,Free,"Correct, no change",3,5
1567,0,9267,1887,79.02,88.68,287,2455,1,1,50,50,1,45,50,5,0,3,2,False,,674,408,False,False,13,,882,698,2727,183,45,45,Left,0.13958898,0.15347902,0.56461804,0.6830821840000001,0.472790657,1.524960399,3000.0,Free,"Correct, no change",1,1
1568,0,2030,4665,84.58,80.0,470,503,-1,1,45,50,1,45,50,5,1,2,4,False,,764,1184,True,False,13,,1107,1502,2824,97,50,45,Left,0.536433617,0.527211794,-0.067715312,0.08840163599999999,0.472790657,-0.615832476,3000.0,Free,Incorrect to correct,4,3
1572,1,5797,3754,96.78,101.28,506,1744,1,1,50,50,2,43,50,7,0,3,1,False,,990,500,False,False,13,,300,998,3389,198,43,43,Right,1.407207822,1.3472729159999999,1.482521292,1.546328142,1.596783539,0.498492073,3000.0,Free,"Correct, no change",0,3
1576,1,6240,665,83.6,96.45,308,8126,1,1,56,56,1,50,56,6,0,2,2,False,,502,378,False,False,13,,1143,955,3946,189,50,50,Right,0.466486181,0.461338032,1.130658378,1.215417192,1.034787098,0.629536876,3000.0,Free,"Correct, no change",3,0
1578,1,9566,9278,73.13,60.57,705,732,1,1,57,57,1,50,57,7,0,2,4,False,,871,1234,False,False,13,,696,1390,4215,166,50,50,Left,-0.280809386,-0.242435735,-1.483180406,-1.242778441,1.596783539,1.6134082459999999,3000.0,Free,"Correct, no change",3,5
1579,1,1696,2723,95.62,93.62,739,7226,1,1,50,50,2,50,43,7,0,1,5,True,,670,1059,True,True,13,,677,1612,4408,193,43,43,Right,1.324412898,1.269299892,0.9244943940000001,1.021529409,1.596783539,-0.71463375,3000.0,Free,"Correct, no change",3,2
1580,1,2780,4925,72.38,83.53,556,220,1,1,56,56,1,56,50,6,0,2,5,True,,1038,988,True,True,13,,534,1202,4585,177,50,50,Left,-0.334340588,-0.292849328,0.189443298,0.330247527,1.034787098,-0.39397332799999996,3000.0,Free,"Correct, no change",3,5
1581,1,8957,3587,95.32,97.5,565,1515,1,1,50,50,2,50,44,6,0,2,2,True,,951,1958,True,True,13,,596,490,4780,195,44,44,Left,1.3030004179999999,1.249134454,1.207150316,1.287354355,1.034787098,1.433258617,3000.0,Free,"Correct, no change",3,6
1585,1,7776,14064,88.85,88.6,476,404,1,1,50,50,1,45,50,5,0,1,3,False,,856,815,False,False,13,,766,1394,5255,188,45,45,Left,0.8412045890000001,0.814233187,0.558790083,0.6776012579999999,0.472790657,1.083904412,3000.0,Free,"Correct, no change",3,5
1593,2,1415,5066,88.13,75.58,781,277,1,1,50,50,1,50,45,5,0,2,3,True,,1206,1176,True,True,13,,392,1144,6586,181,45,45,Left,0.7898146359999999,0.7658361370000001,-0.389709945,-0.214419565,0.472790657,-0.797756978,3000.0,Free,"Correct, no change",1,5
1594,2,4602,2825,70.25,57.77,289,663,-1,-1,50,50,1,55,50,5,1,2,3,True,,740,842,False,False,13,,916,1454,6621,35,55,55,Left,-0.486369199,-0.436023934,-1.6871589059999998,-1.434610876,0.472790657,0.144996496,3000.0,Free,"Incorrect, no change",1,5
1603,2,6639,4346,63.98,96.83,1073,442,1,1,57,57,1,50,57,7,0,4,3,False,,966,1400,False,False,13,,588,1138,7754,179,50,50,Right,-0.93389004,-0.857481577,1.158341175,1.2414515940000002,1.596783539,0.747565943,3000.0,Free,"Correct, no change",1,5
1605,2,3378,2258,93.42,91.67,585,451,1,1,50,50,1,50,44,6,0,1,4,True,,984,1080,True,True,13,,704,1111,8139,191,44,44,Right,1.167388041,1.121420017,0.7824379379999999,0.88793182,1.034787098,-0.217077634,3000.0,Free,"Correct, no change",2,3
1606,2,6078,1445,83.27,84.67,810,640,-1,-1,50,50,1,50,56,6,1,3,4,False,,813,980,True,True,13,,730,1632,8154,15,56,56,Right,0.44293245299999995,0.439156051,0.272491687,0.40835073299999997,1.034787098,0.5816153000000001,3000.0,Free,"Incorrect, no change",1,5
1607,2,4415,930,86.7,90.38,517,521,1,1,57,57,1,50,57,7,0,3,4,False,,642,916,False,False,13,,1008,1290,8342,188,50,50,Left,0.687748479,0.6697142189999999,0.688462129,0.7995518770000001,1.596783539,0.089679615,3000.0,Free,"Correct, no change",2,3
1608,2,3598,12931,96.28,96.5,699,323,1,1,50,50,2,50,43,7,0,3,1,True,,678,1432,True,True,13,,602,286,8538,196,43,43,Right,1.371520355,1.313663854,1.134300852,1.218842771,1.596783539,-0.15199895,3000.0,Free,"Correct, no change",2,4
1613,3,4143,3794,58.05,68.57,332,709,-1,1,50,54,0,54,50,4,1,2,2,True,,720,598,False,True,13,,774,1804,9210,104,54,50,Left,-1.357143404,-1.256085057,-0.90038469,-0.694685769,-0.08920578400000001,0.009218698,3000.0,Free,Incorrect to correct,3,6
1617,3,6653,3360,58.87,62.92,486,588,1,1,55,55,1,50,55,5,0,2,2,False,,584,492,False,False,13,,950,2271,9736,160,50,50,Right,-1.298615957,-1.200966194,-1.311984164,-1.081776218,0.472790657,0.751707314,3000.0,Free,"Correct, no change",3,6
1620,3,2202,4776,69.22,75.77,975,640,1,-1,54,50,2,54,50,4,0,1,4,True,,692,1316,True,False,13,,882,1358,10205,96,50,54,Left,-0.559885382,-0.5052586029999999,-0.375868546,-0.201402365,-0.08920578400000001,-0.564952778,3000.0,Free,Correct to incorrect,4,3
1622,3,1785,2861,78.38,59.28,656,391,1,-1,53,50,2,53,50,3,0,1,1,True,,744,136,True,False,13,,918,500,10507,109,50,53,Right,0.093909021,0.11045942,-1.577156215,-1.331158384,-0.651202226,-0.688306465,3000.0,Free,Correct to incorrect,3,1
1624,3,3747,3020,64.5,74.03,892,708,1,-1,50,47,2,47,50,3,0,1,1,False,,1006,121,False,True,13,,528,1904,10700,94,47,50,Right,-0.896775074,-0.8225281520000001,-0.502626614,-0.32061252100000004,-0.651202226,-0.10792293300000001,3000.0,Free,Correct to incorrect,4,5
