Participant,Trial,Correct1,CorrectKey,Response1,RT1,DotDifference,DotNumberRight,DotNumberLeft,Conf1,Conf1_RT,CipResponse,CipRT,Correct2,Response2,RT2,Conf2,Conf2_RT,ZConf1,ZConf2,Switch,ZSwitch,ZDifficult,Block,NonAbsDiff,ZNonAbsDiff,LeftTime,RightTime,ChosenTime,UnchosenTime,Change,Type,DeltaSampling,ZDeltaSampling,ConfChange
1,1,1,left,left,1.967746203,5,45,50,0.82,2.758,"[""'left'"", ""'right'"", ""'left'"", ""'right'"", ""'left'"", ""'right'""]","[0.7669320817985863 1.2164835825897171 1.8150586143710825 2.307769985465711 3.016488258166646 3.3578602611996757 4.0]",0,right,0.487120063,0.8,1.557,0.342894067,-0.252718306,5,1.528009485,0.616217825,1,5,1.183408833,1.283634875,1.949433043,1.283634875,1.949433043,1,Correct to incorrect,-0.665798168,-1.122601418,-0.02
1,2,1,left,left,3.987012154,4,50,54,0.64,4.49,"[""'left'"", ""'right'"", ""'left'"", ""'right'"", ""'left'"", ""'right'""]","[0.6460583871485142 1.0929379656190576 1.6421742354505113 2.371434835404216 3.2466795549225935 3.7019840135144477 4.0]",0,right,1.184323297,0.49,4.18,-0.931015781,-2.364380705,5,1.528009485,-0.113034039,1,4,0.955171836,1.631444637,1.722496976,1.631444637,1.722496976,1,Correct to incorrect,-0.091052339,-0.370912964,-0.15
1,3,1,left,left,0.612438409,3,47,50,0.83,1.058,"[""'left'"", ""'right'"", ""'left'"", ""'right'"", ""'left'""]","[0.5293271414193441 0.92098128998623 1.5315628664357064 2.0322435338021023 2.7912861462864385 4.0]",1,left,0.033016145,0.99,1.56,0.413666837,1.04152639,4,0.499046869,-0.842285903,1,3,0.726934838,2.10104867,1.369624189,2.10104867,1.369624189,0,"Correct, no change",0.731424481,0.704773534,0.16
1,4,1,right,right,0.548906413,2,52,50,0.5,1.263,"[""'left'"", ""'right'"", ""'left'"", ""'right'"", ""'left'""]","[1.6563831488711003 2.0629877462779405 2.5756732477348123 3.0759137264467427 3.5319212324611726 4.0]",1,right,0.056083,0.97,1.762,-1.921834551,0.905290106,4,0.499046869,-1.571537768,1,-2,-0.414250151,1.374923844,0.968693007,0.968693007,1.374923844,0,"Correct, no change",0.406230836,0.279464997,0.47
1,5,0,right,left,1.40428762,1,50,49,0.66,1.401,"[""'left'"", ""'right'"", ""'left'"", ""'right'"", ""'left'""]","[0.37614034947546315 0.746451335347956 1.4347493020104594 2.5525690453287098 3.398881054123194 4.0]",0,left,0.516196462,0.9,3.637,-0.789470242,0.428463113,4,0.499046869,-2.300789632,1,-1,-0.186013153,2.089249675,1.534609975,2.089249675,1.534609975,0,"Incorrect, no change",0.5546397,0.473563368,0.24
1,6,0,left,right,0.390049057,2,50,52,0.88,4.107,"[""'right'"", ""'left'"", ""'right'"", ""'left'""]","[1.6941193475722685 2.1152706974899047 2.5585512205398118 3.2100988514321216 4.0]",0,right,0.501952482,0.64,2.189,0.767530683,-1.342608577,3,-0.529915747,-1.571537768,1,2,0.49869784,1.233181672,1.072698981,1.072698981,1.233181672,0,"Incorrect, no change",0.160482691,-0.041939759,-0.24
1,7,1,right,right,0.595102274,3,50,47,0.84,1.856,"[""'right'"", ""'left'"", ""'right'""]",[0.7438543933458277 1.367756808311242 1.9139396970058442 4.0],1,right,0.056796881,1,1.595,0.484439606,1.109644531,2,-1.558878364,-0.842285903,1,-3,-0.642487149,0.546182889,2.709962718,2.709962718,0.546182889,0,"Correct, no change",-2.163779829,-3.081755293,0.16
1,8,0,left,right,0.773669762,3,47,50,0.71,1.607,"[""'left'"", ""'right'"", ""'left'"", ""'right'"", ""'left'""]","[0.46767906255990965 0.822467126261472 1.4674367307234206 2.5714575290658104 3.6069331993785454 4.0]",0,right,0.091843481,0.62,3.187,-0.435606395,-1.478844861,4,0.499046869,-0.842285903,1,3,0.726934838,1.851875663,1.680445275,1.680445275,1.851875663,0,"Incorrect, no change",0.171430388,-0.027621678,-0.09
1,9,1,left,left,0.520784231,4,50,54,0.98,5.573,"[""'left'"", ""'right'"", ""'left'"", ""'right'"", ""'left'""]","[0.5446308245518594 0.9498082299869566 1.4494026805296016 2.121329563597101 3.2560800345054304 4.0]",1,left,0.196117445,0.99,2.095,1.475258377,1.04152639,4,0.499046869,-0.113034039,1,4,0.955171836,1.821024254,1.634344921,1.821024254,1.634344921,0,"Correct, no change",0.186679333,-0.007678157,0.01
1,10,1,right,right,0.998524627,4,50,46,0.64,2.23,"[""'left'"", ""'right'"", ""'left'"", ""'right'"", ""'left'""]","[0.6402107773828902 1.1862978737262893 1.7953881115427066 2.5630403465402196 3.389040956077224 4.0]",1,right,0.016765942,1,1.685,-0.931015781,1.109644531,4,0.499046869,-0.113034039,1,-4,-0.870724147,1.924698375,1.435090847,1.435090847,1.924698375,0,"Correct, no change",0.489607528,0.388510237,0.36
1,11,1,right,right,0.675902266,3,50,47,0.72,1.062,"[""'left'"", ""'right'"", ""'left'"", ""'right'"", ""'left'""]","[0.5174260823769146 1.0091598583312589 1.639480360718153 2.7263611708003737 3.5741653735203727 4.0]",0,left,0.28778103,0.77,4.012,-0.364833626,-0.457072732,4,0.499046869,-0.842285903,1,-3,-0.642487149,2.004449213,1.478124705,1.478124705,2.004449213,1,Correct to incorrect,0.526324507,0.436530993,0.05
1,12,1,left,left,0.692433573,3,50,53,0.82,2.297,"[""'left'"", ""'right'"", ""'left'"", ""'right'"", ""'left'""]","[0.3849686408357229 0.8036627459296142 1.5727056805735629 2.690066989074694 3.7050157273370132 4.0]",1,left,1.362275262,0.58,3.959,0.342894067,-1.751317428,4,0.499046869,-0.842285903,1,3,0.726934838,1.831039686,1.783991673,1.831039686,1.783991673,0,"Correct, no change",0.047048013,-0.190296708,-0.24
1,13,0,right,left,0.635974532,2,50,48,0.6,1.855,"[""'left'"", ""'right'"", ""'left'"", ""'right'""]","[1.5746600155616761 2.0600005074738874 2.770833054179093 3.2884532871175907 4.0]",0,left,0.830075206,0.6,5.26,-1.214106858,-1.615081144,3,-0.529915747,-1.571537768,1,-2,-0.414250151,1.002960725,1.42237926,1.002960725,1.42237926,0,"Incorrect, no change",-0.419418535,-0.800370762,0
1,14,1,left,left,1.485712543,3,50,53,0.62,1.408,"[""'left'"", ""'right'"", ""'left'"", ""'right'"", ""'left'"", ""'right'""]","[0.35685045017817174 0.7135412464449473 1.477846166038944 2.2560817450830655 2.958427830868459 3.4580405275737576 4.0]",0,right,0.426427342,0.82,1.937,-1.072561319,-0.116482023,5,1.528009485,-0.842285903,1,3,0.726934838,1.634539072,2.008610478,1.634539072,2.008610478,1,Correct to incorrect,-0.374071406,-0.741062958,0.2
1,15,1,left,left,0.884870995,3,47,50,0.64,1.001,"[""'left'"", ""'right'"", ""'left'"", ""'right'"", ""'left'""]","[0.3981734451626835 0.7959953666140791 1.5242912007597624 2.288930538288696 3.365334345235169 4.0]",1,left,0.395065896,0.99,3.291,-0.931015781,1.04152639,4,0.499046869,-0.842285903,1,3,0.726934838,1.797126914,1.804699641,1.797126914,1.804699641,0,"Correct, no change",-0.007572727,-0.26173312,0.35
1,16,1,left,left,0.640437714,2,48,50,0.93,6.145,"[""'left'"", ""'right'"", ""'left'"", ""'right'"", ""'left'""]","[0.5746075578463206 1.0064363335841335 1.712282546377537 2.433482334152359 3.19532801324749 4.0]",1,left,0.341878619,1,3.331,1.12139453,1.109644531,4,0.499046869,-1.571537768,1,2,0.49869784,1.95770055,1.467691892,1.95770055,1.467691892,0,"Correct, no change",0.490008658,0.38903486,0.07
1,17,0,right,left,2.013684051,2,52,50,0.66,2.324,"[""'left'"", ""'right'"", ""'left'"", ""'right'"", ""'left'"", ""'right'""]","[0.2928081327700056 0.8413462018179416 1.4806235739815747 2.070033615702414 2.914700333873043 3.6152260799208307 4.0]",1,right,0.44567134,0.66,1.903,-0.789470242,-1.206372293,5,1.528009485,-1.571537768,1,-2,-0.414250151,1.838473857,1.86871801,1.838473857,1.86871801,1,Incorrect to correct,-0.030244154,-0.291384226,0
1,18,1,right,right,0.592769616,3,50,47,0.83,1.377,"[""'left'"", ""'right'"", ""'left'"", ""'right'"", ""'left'"", ""'right'""]","[0.4621025793530862 1.0009727485012263 1.6008823159609165 2.230515736315283 2.9480249527659907 3.7095883865476935 4.0]",1,right,1.922690157,0.56,2.419,0.413666837,-1.887553712,5,1.528009485,-0.842285903,1,-3,-0.642487149,1.930067023,1.607830397,1.607830397,1.930067023,0,"Correct, no change",0.322236626,0.169612129,-0.27
1,19,0,left,right,7.406887413,3,47,50,0.5,0.514,"[""'left'"", ""'right'""]",[2.742418078298215 3.3518544229991676 4.0],1,left,1.239700683,0.58,1.503,-1.921834551,-1.751317428,1,-2.58784098,-0.842285903,1,3,0.726934838,0.609436345,0.648145577,0.648145577,0.609436345,1,Incorrect to correct,-0.038709232,-0.302455384,0.08
1,20,0,right,left,1.479100305,4,50,46,0.6,4.415,"[""'left'"", ""'right'"", ""'left'"", ""'right'"", ""'left'""]","[0.7014771123249375 1.1022192749587703 1.6650745940132765 2.2770434489575564 3.317533107518102 4.0]",1,right,2.027341303,0.64,1.468,-1.214106858,-1.342608577,4,0.499046869,-0.113034039,1,-4,-0.870724147,1.69517791,1.603344978,1.69517791,1.603344978,1,Incorrect to correct,0.091832932,-0.131724196,0.04
1,21,0,right,left,0.716783361,5,50,45,0.71,2.14,"[""'left'"", ""'right'"", ""'left'"", ""'right'"", ""'left'"", ""'right'""]","[0.30368084954170627 0.7113614003028488 1.473729090681445 2.0508215476911573 2.8656027633805934 3.966814508094103 4.0]",0,left,0.705574231,0.7,1.884,-0.435606395,-0.933899725,5,1.528009485,0.616217825,1,-5,-1.098961144,2.085984752,1.610334398,2.085984752,1.610334398,0,"Incorrect, no change",0.475650355,0.370256175,-0.01
1,22,1,left,left,0.526205337,6,44,50,0.88,1.447,"[""'left'"", ""'right'"", ""'left'"", ""'right'"", ""'left'""]","[0.3282282093059621 0.6761226449962123 1.1528979894137592 1.6521813999170263 2.6059655826065864 4.0]",1,left,0.619452347,0.99,1.685,0.767530683,1.04152639,4,0.499046869,1.34546969,1,6,1.411645831,2.241212264,1.430559527,2.241212264,1.430559527,0,"Correct, no change",0.810652736,0.80839319,0.11
1,23,1,left,left,0.515899677,6,44,50,0.73,1.921,"[""'left'"", ""'right'"", ""'left'"", ""'right'"", ""'left'""]","[0.48257049646781525 0.8559054985671537 2.0219863398961024 2.638531275202695 3.323036606077949 4.0]",1,left,0.251056923,0.87,2.905,-0.294060857,0.224108687,4,0.499046869,1.34546969,1,6,1.411645831,1.666843331,1.850586172,1.666843331,1.850586172,0,"Correct, no change",-0.183742841,-0.492139386,0.14
1,24,1,left,left,1.027620698,5,50,55,0.58,3.918,"[""'right'"", ""'left'"", ""'right'"", ""'left'"", ""'right'"", ""'left'""]","[0.5101495700619125 1.1319057802429597 1.6508673911739606 2.386730250738765 3.040574332157121 3.6885796417882375 4.0]",1,left,2.043967263,0.57,5.236,-1.355652397,-1.81943557,5,1.528009485,0.616217825,1,5,1.183408833,1.484226051,2.005624379,1.484226051,2.005624379,0,"Correct, no change",-0.521398329,-0.933746299,-0.01
1,25,1,right,right,0.748986411,5,50,45,0.99,2.229,"[""'left'"", ""'right'"", ""'left'"", ""'right'"", ""'left'"", ""'right'""]","[0.5146880177198909 0.8284715389818302 1.3435504236986162 1.8916639843882876 3.025869921402773 3.341715258953627 4.0]",1,right,0.748914852,1,3.338,1.546031146,1.109644531,5,1.528009485,0.616217825,1,-5,-1.098961144,1.17774242,2.307569563,2.307569563,1.17774242,0,"Correct, no change",-1.129827143,-1.729487463,0.01
1,26,1,left,left,0.900281875,4,46,50,0.6,1.351,"[""'left'"", ""'right'"", ""'left'"", ""'right'"", ""'left'"", ""'right'""]","[0.754745356280182 1.2525511127714708 1.8102578781363263 2.3895823539060075 3.2773715947732853 3.774061199335847 4.0]",0,right,0.07622163,0.72,1.05,-1.214106858,-0.797663442,5,1.528009485,-0.113034039,2,4,0.955171836,1.573819837,1.671434807,1.573819837,1.671434807,1,Correct to incorrect,-0.09761497,-0.379495983,0.12
1,27,0,right,left,0.495219078,4,54,50,0.93,2.622,"[""'left'"", ""'right'"", ""'left'"", ""'right'""]","[0.7025476488524873 1.0839580030369689 1.6455483499048569 2.2599065967588103 4.0]",1,right,0.29811463,0.92,1.814,1.12139453,0.564699396,3,-0.529915747,-0.113034039,2,-4,-0.870724147,0.995768601,2.30168375,0.995768601,2.30168375,1,Incorrect to correct,-1.305915149,-1.959786343,-0.01
1,28,1,left,left,0.527957824,5,45,50,0.72,1.196,"[""'left'"", ""'right'"", ""'left'"", ""'right'"", ""'left'"", ""'right'""]","[0.82963416160419 1.235323885051912 1.8254959891200997 2.3547036752024724 2.6510250494138745 3.4992919633914426 4.0]",1,left,0.198094302,0.74,1.526,-0.364833626,-0.661427158,5,1.528009485,0.616217825,2,5,1.183408833,1.783164324,1.387201515,1.783164324,1.387201515,0,"Correct, no change",0.395962809,0.26603583,0.02
1,29,0,right,left,0.924075725,5,50,45,0.7,2.003,"[""'left'"", ""'right'"", ""'left'"", ""'right'"", ""'left'""]","[0.9936988020563149 1.4174599233047047 2.148156838306022 2.785634397663671 3.4439237002552545 4.0]",0,left,1.087972159,0.74,1.719,-0.506379165,-0.661427158,4,0.499046869,0.616217825,2,-5,-1.098961144,1.61731498,1.388986218,1.61731498,1.388986218,0,"Incorrect, no change",0.228328763,0.046793566,0.04
1,30,1,left,left,0.436376346,6,50,56,0.95,2.232,"[""'left'"", ""'right'"", ""'left'"", ""'right'"", ""'left'""]","[0.35392365178995533 0.6793257016870484 1.3189654312227503 1.818129386385408 2.4640931215690216 4.0]",0,right,0.049615876,0.85,5.024,1.262940069,0.087872403,4,0.499046869,1.34546969,2,6,1.411645831,2.360472883,1.285603465,2.360472883,1.285603465,1,Correct to incorrect,1.074869419,1.153952252,-0.1
1,31,1,right,right,0.406368538,6,50,44,0.8,1.932,"[""'left'"", ""'right'"", ""'left'"", ""'right'""]","[0.40249122829845874 0.9161836898128968 1.4803541580004094 1.9271519138346775 4.0]",1,right,0.196968457,1,1.847,0.201348529,1.109644531,3,-0.529915747,1.34546969,2,-6,-1.327198142,0.960490217,2.637018554,2.637018554,0.960490217,0,"Correct, no change",-1.676528337,-2.444497392,0.2
1,32,1,right,right,0.439203646,5,50,45,0.84,1.605,"[""'left'"", ""'right'"", ""'left'"", ""'right'"", ""'left'"", ""'right'""]","[0.6255194810582907 0.9987720903300215 1.4956920526856265 1.9216749292318127 2.75729354681971 3.4759947508100595 4.0]",1,right,0.265775019,0.83,1.668,0.484439606,-0.048363881,5,1.528009485,0.616217825,2,-5,-1.098961144,1.51793669,1.856543829,1.856543829,1.51793669,0,"Correct, no change",-0.338607139,-0.694680577,-0.01
1,33,1,left,left,0.387424175,5,45,50,1,4.682,"[""'left'"", ""'right'"", ""'left'"", ""'right'"", ""'left'""]","[0.760491471774003 1.2930553112455527 1.9322599838596943 2.5062899366457714 3.1958143874981033 4.0]",1,left,0.183761372,0.91,3.502,1.616803916,0.496581254,4,0.499046869,0.616217825,2,5,1.183408833,1.910779405,1.328729123,1.910779405,1.328729123,0,"Correct, no change",0.582050281,0.509412637,-0.09
1,34,0,left,right,2.338215417,4,46,50,0.58,1.186,"[""'left'"", ""'right'"", ""'left'"", ""'right'"", ""'left'""]","[0.8237931090516213 1.5576431888912339 2.184121448732185 2.7942203571838036 3.8006917576094565 4.0]",1,left,2.086828923,0.6,1.623,-1.355652397,-1.615081144,4,0.499046869,-0.113034039,2,4,0.955171836,1.543257231,1.63294966,1.63294966,1.543257231,1,Incorrect to correct,-0.08969243,-0.36913439,0.02
1,35,0,right,left,1.264702201,5,55,50,0.49,2.232,"[""'left'"", ""'right'"", ""'left'"", ""'right'"", ""'left'"", ""'right'""]","[0.5173585145566904 0.9654788320294756 1.5157927657965047 2.1205335747908975 2.9978392553057347 3.7320026559573307 4.0]",1,right,0.393573132,0.77,2.264,-1.992607321,-0.457072732,5,1.528009485,0.616217825,2,-5,-1.098961144,1.787024527,1.695616958,1.787024527,1.695616958,1,Incorrect to correct,0.091407569,-0.132280513,0.28
1,36,1,right,right,0.763939996,6,56,50,0.74,1.534,"[""'left'"", ""'right'"", ""'left'"", ""'right'"", ""'left'"", ""'right'""]","[0.3690220655989833 0.8093321705237031 1.3077699854657112 1.8527400745879277 2.5698515817312 3.897357642163115 4.0]",1,right,0.396026955,0.86,1.572,-0.223288087,0.155990545,5,1.528009485,1.34546969,2,-6,-1.327198142,2.312786254,1.31819168,1.31819168,2.312786254,0,"Correct, no change",0.994594575,1.048963802,0.12
1,37,1,left,left,0.628875349,6,50,56,0.58,1.077,"[""'left'"", ""'right'"", ""'left'"", ""'right'""]","[0.3868103627937671 0.7861960373338661 1.3532531053388084 2.6270929274178343 4.0]",1,left,0.935756975,0.67,2.559,-1.355652397,-1.138254151,3,-0.529915747,1.34546969,2,6,1.411645831,1.673225497,1.939964141,1.673225497,1.939964141,0,"Correct, no change",-0.266738644,-0.600686475,0.09
1,38,1,left,left,0.422414897,5,50,55,0.77,1.123,"[""'left'"", ""'right'"", ""'left'""]",[2.789202092491905 3.2231365893421753 3.784696430906479 4.0],1,left,0.266238015,0.83,1.842,-0.010969779,-0.048363881,2,-1.558878364,0.616217825,2,5,1.183408833,0.649238066,0.561559842,0.649238066,0.561559842,0,"Correct, no change",0.087678224,-0.137157983,0.06
1,39,1,right,right,0.398696312,5,55,50,0.88,1.915,"[""'left'"", ""'right'"", ""'left'"", ""'right'""]","[1.7617156751948642 2.3105043438699795 2.9160799147684884 3.481593471526139 4.0]",1,right,0.280786193,0.9,3.636,0.767530683,0.428463113,3,-0.529915747,0.616217825,2,-5,-1.098961144,1.114302225,1.123982099,1.123982099,1.114302225,0,"Correct, no change",-0.009679874,-0.264488978,0.02
1,40,1,right,right,0.744214185,4,50,46,0.74,0.999,"[""'left'"", ""'right'"", ""'left'"", ""'right'""]","[0.3869386561200372 0.7639662252149719 1.3874506890351768 2.1330809471000975 4.0]",1,right,0.347219328,0.95,3.769,-0.223288087,0.769053822,3,-0.529915747,-0.113034039,2,-4,-0.870724147,1.122657827,2.490403517,2.490403517,1.122657827,0,"Correct, no change",-1.36774569,-2.040652181,0.21
1,41,0,right,left,0.965773051,4,50,46,0.66,2.813,"[""'left'"", ""'right'"", ""'left'"", ""'right'"", ""'left'""]","[0.43552248312334996 0.8669640981133853 1.7437044327052718 2.9590835523122223 3.6316513318161014 4.0]",1,right,0.265613939,0.62,1.747,-0.789470242,-1.478844861,4,0.499046869,-0.113034039,2,-4,-0.870724147,2.015169403,1.549308114,2.015169403,1.549308114,1,Incorrect to correct,0.465861289,0.357453423,-0.04
1,42,0,right,left,1.001232186,5,50,45,0.58,1.629,"[""'left'"", ""'right'"", ""'left'"", ""'right'""]","[0.4937702186725801 0.8824040572617378 1.521008032017562 1.8952901239499624 4.0]",1,right,0.151138945,0.8,2.047,-1.355652397,-0.252718306,3,-0.529915747,0.616217825,2,-5,-1.098961144,0.762915931,2.743313851,0.762915931,2.743313851,1,Incorrect to correct,-1.98039792,-2.841916992,0.22
1,43,1,right,right,1.5644128,6,56,50,0.6,2.108,"[""'left'"", ""'right'"", ""'left'"", ""'right'""]","[0.9645440013300686 1.3715942042217648 2.0532480021174706 2.618457931333978 4.0]",1,right,0.707120023,0.54,2.56,-1.214106858,-2.023789996,3,-0.529915747,1.34546969,2,-6,-1.327198142,0.972260132,2.063195867,2.063195867,0.972260132,0,"Correct, no change",-1.090935734,-1.678622852,-0.06
1,44,1,right,right,0.609959211,6,50,44,0.74,1.719,"[""'left'"", ""'right'"", ""'left'"", ""'right'"", ""'left'"", ""'right'""]","[0.34546028366457904 0.7769218553949031 1.2756456219067331 2.405219314590795 3.1791986912940047 3.759214525543939 4.0]",1,right,0.346646569,0.73,2.251,-0.223288087,-0.7295453,5,1.528009485,1.34546969,2,-6,-1.327198142,2.141051099,1.513488618,1.513488618,2.141051099,0,"Correct, no change",0.627562481,0.568936331,-0.01
1,45,0,left,right,1.59275251,5,50,55,0.6,1.42,"[""'left'"", ""'right'"", ""'left'"", ""'right'"", ""'left'"", ""'right'""]","[0.608026828700531 1.263520192085707 1.9849948126720847 2.889741580180271 3.3696897610789165 3.6520163291752397 4.0]",0,right,0.28092475,0.9,6.878,-1.214106858,0.428463113,5,1.528009485,0.616217825,2,5,1.183408833,1.842566699,1.549406472,1.549406472,1.842566699,0,"Incorrect, no change",0.293160227,0.1315842,0.3
1,46,0,left,right,1.216960264,6,44,50,0.56,3.793,"[""'left'"", ""'right'"", ""'left'"", ""'right'"", ""'left'"", ""'right'""]","[0.33914255013587535 0.9038042392094212 1.3999230810259178 2.7759123294745223 3.371164564130595 3.957204197642568 4.0]",0,right,0.056071881,0.93,3.077,-1.497197935,0.632817538,5,1.528009485,1.34546969,2,6,1.411645831,2.526690571,1.134166879,1.134166879,2.526690571,0,"Incorrect, no change",1.392523692,1.569400329,0.37
1,47,1,left,left,0.641926487,7,43,50,0.58,1.311,"[""'left'"", ""'right'"", ""'left'"", ""'right'"", ""'left'"", ""'right'"", ""'left'""]","[0.36129795212400495 0.7582865371550724 1.4849769941538398 2.0231979990785476 2.9150732398084074 3.5830874615494395 3.960269267732656 4.0]",1,left,0.232310132,0.72,1.534,-1.355652397,-0.797663442,6,2.556972102,2.074721554,2,7,1.639882829,1.642954544,1.995747504,1.642954544,1.995747504,0,"Correct, no change",-0.35279296,-0.713233679,0.14
1,48,1,left,left,0.592472831,7,43,50,1,1.765,"[""'left'"", ""'right'"", ""'left'"", ""'right'"", ""'left'""]","[0.44775938558450434 0.8231946919659094 1.3546911309713323 1.7913990444139927 2.3062073727633106 4.0]",1,left,0.737380712,1,1.995,1.616803916,1.109644531,4,0.499046869,2.074721554,2,7,1.639882829,2.505935847,1.046304767,2.505935847,1.046304767,0,"Correct, no change",1.45963108,1.657167557,0
1,49,1,right,right,0.501648284,6,50,44,0.93,2.144,"[""'left'"", ""'right'"", ""'left'"", ""'right'""]","[0.6030442010414845 1.1161171483399812 1.710647519219492 2.3504226694858517 4.0]",1,right,0.100122962,1,1.803,1.12139453,1.109644531,3,-0.529915747,1.34546969,2,-6,-1.327198142,1.152848098,2.244107701,2.244107701,1.152848098,0,"Correct, no change",-1.091259604,-1.679046428,0.07
1,50,1,right,right,3.229714046,6,50,44,0.5,0.565,"[""'left'"", ""'right'"", ""'left'"", ""'right'"", ""'left'"", ""'right'""]","[0.49408353948092554 1.0077717245512758 1.9962581113468332 2.3082535087523866 3.1771958899371384 3.4933459954081627 4.0]",1,right,0.439217901,0.94,1.811,-1.921834551,0.70093568,5,1.528009485,1.34546969,2,-6,-1.327198142,1.141833688,2.364082773,2.364082773,1.141833688,0,"Correct, no change",-1.222249085,-1.850362644,0.44
1,51,1,left,left,0.611456252,5,50,55,0.77,1.846,"[""'left'"", ""'right'"", ""'left'"", ""'right'"", ""'left'"", ""'right'""]","[0.3229832930737757 0.6473937781156565 1.1349400599356159 1.5846720266672492 2.2749134946643608 3.396111058686074 4.0]",0,right,0.033083998,0.76,3.59,-0.010969779,-0.525190874,5,1.528009485,0.616217825,3,5,1.183408833,1.895340016,1.781676691,1.895340016,1.781676691,1,Correct to incorrect,0.113663325,-0.103173047,-0.01
1,52,1,left,left,0.605992667,5,45,50,0.86,1.48,"[""'left'"", ""'right'"", ""'left'"", ""'right'"", ""'left'"", ""'right'"", ""'left'""]","[0.6195264721864078 0.9985078060781234 1.556696099054534 2.1010768941705464 2.52589600770807 2.9294780143718526 3.277316286093992 4.0]",1,left,0.346062407,0.91,2.295,0.625985145,0.496581254,6,2.556972102,0.616217825,3,5,1.183408833,2.04962785,1.330845678,2.04962785,1.330845678,0,"Correct, no change",0.718782171,0.688239134,0.05
1,53,1,right,right,0.436228096,4,50,46,0.94,1.762,"[""'left'"", ""'right'"", ""'left'"", ""'right'"", ""'left'"", ""'right'""]","[0.5928109552223759 1.1996292607982468 1.7477086099352164 2.323856257877196 3.0897189435345354 3.791866887404467 4.0]",1,right,0.26723129,0.99,4.078,1.1921673,1.04152639,5,1.528009485,-0.113034039,3,-4,-0.870724147,1.885113897,1.522075147,1.522075147,1.885113897,0,"Correct, no change",0.36303875,0.222975692,0.05
1,54,1,left,left,0.381790102,4,50,54,1,1.591,"[""'left'"", ""'right'"", ""'left'"", ""'right'"", ""'left'""]","[0.41850052472000243 0.7476022690243553 1.2621152376268583 1.7438352918979945 2.4788802102411864 4.0]",1,left,7.251347436,0.91,2.715,1.616803916,0.496581254,4,0.499046869,-0.113034039,3,4,0.955171836,2.331941588,1.249557887,2.331941588,1.249557887,0,"Correct, no change",1.082383701,1.1637799,-0.09
1,55,0,right,left,1.94763209,3,53,50,0.58,2.016,"[""'left'"", ""'right'"", ""'left'"", ""'right'""]","[0.4637923449954542 0.9289423184673069 1.5761530647723703 3.25498184364551 4.0]",0,left,0.215609192,0.6,1.621,-1.355652397,-1.615081144,3,-0.529915747,-0.842285903,3,-3,-0.642487149,2.143978752,1.392228903,2.143978752,1.392228903,0,"Incorrect, no change",0.75174985,0.73135632,0.02
1,56,0,right,left,1.336769694,4,54,50,0.75,2.287,"[""'left'"", ""'right'"", ""'left'"", ""'right'""]","[0.36157820176595123 0.7832829235594545 1.2989587998818024 1.9215369426347024 4.0]",1,right,0.091172935,0.94,2.293,-0.152515318,0.70093568,3,-0.529915747,-0.113034039,3,-4,-0.870724147,1.044282865,2.594138934,1.044282865,2.594138934,1,Incorrect to correct,-1.549856069,-2.278827497,0.19
1,57,1,right,right,1.759044893,5,55,50,0.89,3.309,"[""'left'"", ""'right'"", ""'left'"", ""'right'""]","[0.46511690230181557 0.9143014841829427 1.7545825663037249 3.048623455382767 4.0]",1,right,0.801120828,0.6,3.953,0.838303453,-1.615081144,3,-0.529915747,0.616217825,3,-5,-1.098961144,1.743225471,1.791657627,1.791657627,1.743225471,0,"Correct, no change",-0.048432156,-0.31517163,-0.29
1,58,1,left,left,1.572986215,5,50,55,0.62,3.12,"[""'left'"", ""'right'"", ""'left'"", ""'right'"", ""'left'""]","[0.5710920356359566 1.0736705889285076 2.3187222440974438 3.1609280111952103 3.8526884721613897 4.0]",1,left,0.30902669,0.93,3.509,-1.072561319,0.632817538,4,0.499046869,0.616217825,3,5,1.183408833,1.492095848,1.936812116,1.492095848,1.936812116,0,"Correct, no change",-0.444716268,-0.833456716,0.31
1,59,1,right,right,0.776361641,4,54,50,0.78,2.188,"[""'left'"", ""'right'"", ""'left'"", ""'right'""]","[0.6031927362018905 1.0434968541048875 1.6072696129849646 2.1638516735292797 4.0]",1,right,0.37941297,0.94,4.679,0.05980299,0.70093568,3,-0.529915747,-0.113034039,3,-4,-0.870724147,0.996886178,2.399921085,2.399921085,0.996886178,0,"Correct, no change",-1.403034907,-2.086805621,0.16
1,60,1,right,right,0.874954777,4,50,46,0.87,1.983,"[""'left'"", ""'right'"", ""'left'"", ""'right'"", ""'left'""]","[0.3270427789830137 0.794640018906648 1.354102977347793 2.885358795094362 3.550816843602661 4.0]",1,right,0.534529863,0.85,2.282,0.696757914,0.087872403,4,0.499046869,-0.113034039,3,-4,-0.870724147,2.448036214,1.224921007,1.224921007,2.448036214,0,"Correct, no change",1.223115207,1.347837343,-0.02
1,61,0,right,left,1.21329364,3,50,47,0.58,2.059,"[""'left'"", ""'right'"", ""'left'"", ""'right'"", ""'left'""]","[0.5727880733938946 1.3090532038113452 1.8807564858689148 2.6804079271569208 3.426776869680907 4.0]",1,right,0.578203192,0.55,3.183,-1.355652397,-1.955671854,4,0.499046869,-0.842285903,3,-3,-0.642487149,2.109139702,1.318072225,2.109139702,1.318072225,1,Incorrect to correct,0.791067477,0.782778367,-0.03
1,62,1,left,left,0.79650797,4,46,50,0.82,2.153,"[""'left'"", ""'right'"", ""'left'"", ""'right'"", ""'left'"", ""'right'""]","[0.46323925821343437 0.8689184330978605 1.3853654948543408 1.9349116643425077 3.0275574062725354 3.9612625431655033 4.0]",1,left,0.472583289,0.88,3.613,0.342894067,0.292226829,5,1.528009485,-0.113034039,3,4,0.955171836,1.888930481,1.647830261,1.888930481,1.647830261,0,"Correct, no change",0.241100221,0.063496876,0.06
1,63,1,right,right,0.621069128,4,54,50,0.83,3.042,"[""'left'"", ""'right'"", ""'left'"", ""'right'"", ""'left'"", ""'right'""]","[0.34624971526136505 0.7759365626588988 1.308987346572394 1.9313570839440217 3.4901506363203225 3.696790129513829 4.0]",1,right,0.362083392,1,1.341,0.413666837,1.109644531,5,1.528009485,-0.113034039,3,-4,-0.870724147,1.258696078,2.395054207,2.395054207,1.258696078,0,"Correct, no change",-1.136358129,-1.738029093,0.17
1,64,0,left,right,1.358959878,3,50,53,0.84,2.186,"[""'left'"", ""'right'"", ""'left'"", ""'right'"", ""'left'""]","[0.949480654366198 1.4620926009811228 2.1028276704200835 3.166110776441201 3.8606637554548797 4.0]",1,left,1.477597562,0.68,3.183,0.484439606,-1.070136009,4,0.499046869,-0.842285903,3,3,0.726934838,1.715231297,1.335288048,1.335288048,1.715231297,1,Incorrect to correct,0.379943249,0.24508445,-0.16
1,65,0,right,left,0.560129799,4,54,50,0.86,5.025,"[""'left'"", ""'right'"", ""'left'"", ""'right'"", ""'left'""]","[0.6327161664121377 1.1979526095856272 2.021178947234148 3.3169746039056918 3.8472816212379257 4.0]",0,left,0.37939843,0.83,2.343,0.625985145,-0.048363881,4,0.499046869,-0.113034039,3,-4,-0.870724147,2.013750479,1.353533355,2.013750479,1.353533355,0,"Incorrect, no change",0.660217124,0.61164411,-0.03
1,66,1,left,left,0.608089835,5,50,55,0.87,1.246,"[""'left'"", ""'right'"", ""'left'"", ""'right'"", ""'left'""]","[0.49446072185673984 1.0266815905051772 1.65460842453831 2.08880235900142 2.401839498208574 4.0]",1,left,0.375824748,0.99,1.877,0.696757914,1.04152639,4,0.499046869,0.616217825,3,5,1.183408833,2.564575305,0.940963973,2.564575305,0.940963973,0,"Correct, no change",1.623611332,1.871631162,0.12
1,67,1,right,right,0.405573974,5,55,50,0.9,1.251,"[""'left'"", ""'right'"", ""'left'"", ""'right'""]","[0.4384569791145623 1.0705470740977034 1.6528975617693504 2.4467013932917325 4.0]",1,right,1.183510773,0.91,1.863,0.909076222,0.496581254,3,-0.529915747,0.616217825,3,-5,-1.098961144,1.425893927,2.135649094,2.135649094,1.425893927,0,"Correct, no change",-0.709755168,-1.180091125,0.01
1,68,1,right,right,0.66962188,4,54,50,0.99,2.903,"[""'left'"", ""'right'""]",[0.7206424245487142 3.4157293888929416 4.0],1,right,0.281979036,0.92,4.215,1.546031146,0.564699396,1,-2.58784098,-0.113034039,3,-4,-0.870724147,2.695086964,0.584270611,0.584270611,2.695086964,0,"Correct, no change",2.110816353,2.508828285,-0.07
1,69,0,right,left,0.426096345,4,54,50,0.92,2.313,"[""'left'"", ""'right'"", ""'left'"", ""'right'"", ""'left'""]","[0.5153209314557898 1.076114149127534 2.0238311979155696 3.025459097665589 3.727386947208288 4.0]",0,left,0.481005318,0.9,3.973,1.050621761,0.428463113,4,0.499046869,-0.113034039,3,-4,-0.870724147,1.83503417,1.649644898,1.83503417,1.649644898,0,"Incorrect, no change",0.185389272,-0.009365379,-0.02
1,70,0,left,right,0.637386614,5,50,55,0.58,1.429,"[""'left'"", ""'right'"", ""'left'"", ""'right'"", ""'left'""]","[0.43581926834667684 1.1082242578740988 2.500775889522629 3.20183334012836 3.9037936906497634 4.0]",0,right,1.731017363,0.62,1.853,-1.355652397,-1.478844861,4,0.499046869,0.616217825,3,5,1.183408833,1.469668749,2.094511982,2.094511982,1.469668749,0,"Incorrect, no change",-0.624843233,-1.069037998,0.04
1,71,1,left,left,4.008134082,6,50,56,0.58,0.9,"[""'left'"", ""'right'"", ""'left'"", ""'right'""]","[0.46603120606960147 1.141561706095672 1.8671599592526036 3.522510204307764 4.0]",1,left,0.022741845,0.68,1.125,-1.355652397,-1.070136009,3,-0.529915747,1.34546969,3,6,1.411645831,2.330880745,1.203088049,2.330880745,1.203088049,0,"Correct, no change",1.127792696,1.223168616,0.1
1,72,1,left,left,0.437878234,6,44,50,0.78,1.289,"[""'left'"", ""'right'"", ""'left'"", ""'right'"", ""'left'""]","[0.3863929818435281 0.9328430057466903 1.7258405849970586 2.237931660711183 2.754271526267985 4.0]",1,left,0.223118058,0.89,3.998,0.05980299,0.360344971,4,0.499046869,1.34546969,3,6,1.411645831,2.304269573,1.309337445,2.304269573,1.309337445,0,"Correct, no change",0.994932129,1.049405277,0.11
1,73,1,right,right,0.699473456,5,50,45,0.6,3.177,"[""'left'"", ""'right'"", ""'left'"", ""'right'"", ""'left'"", ""'right'""]","[0.5277588267963438 1.0729125179241237 1.75651951042164 2.770517452598142 3.342965121035377 3.941180076217279 4.0]",1,right,2.786633945,0.68,4.587,-1.214106858,-1.070136009,5,1.528009485,0.616217825,3,-5,-1.098961144,2.157366588,1.314874585,1.314874585,2.157366588,0,"Correct, no change",0.842492004,0.850034571,0.08
1,74,1,right,right,0.967859671,5,55,50,0.58,2.075,"[""'left'"", ""'right'"", ""'left'"", ""'right'"", ""'left'""]","[0.4198233714523667 1.4783562032826012 2.134666937698057 2.838768931462255 3.77595851507067 4.0]",0,left,0.159551566,0.79,2.59,-1.355652397,-0.320836448,4,0.499046869,0.616217825,3,-5,-1.098961144,1.986676311,1.593500318,1.593500318,1.986676311,1,Correct to incorrect,0.393175993,0.262391058,0.21
1,75,0,right,left,0.777956755,4,54,50,0.71,2.775,"[""'left'"", ""'right'"", ""'left'"", ""'right'""]","[0.5954857285069011 1.425905900548969 2.2334570746206737 3.0112975102238124 4.0]",1,right,0.016911341,0.79,3.482,-0.435606395,-0.320836448,3,-0.529915747,-0.113034039,3,-4,-0.870724147,1.608260608,1.796253664,1.608260608,1.796253664,1,Incorrect to correct,-0.187993056,-0.497698083,0.08
1,76,0,right,left,3.056162541,5,55,50,0.58,3.914,"[""'left'"", ""'right'"", ""'left'"", ""'right'"", ""'left'"", ""'right'""]","[0.3697060115664499 0.9175108129857108 1.5893507416913053 2.7908872965927003 3.367928721367207 3.879087532252015 4.0]",0,left,0.685097476,0.6,1.986,-1.355652397,-1.615081144,5,1.528009485,0.616217825,4,-5,-1.098961144,2.260500167,1.369793821,2.260500167,1.369793821,0,"Incorrect, no change",0.890706346,0.913092295,0.02
1,77,1,right,right,0.419871553,6,50,44,0.83,1.14,"[""'left'"", ""'right'"", ""'left'"", ""'right'"", ""'left'"", ""'right'""]","[0.4955700314785645 1.1347082766587846 1.6967787256617157 2.475051652319962 3.3056602730030136 3.790430572356854 4.0]",1,right,0.230311322,0.87,1.781,0.413666837,0.224108687,5,1.528009485,1.34546969,4,-6,-1.327198142,1.902181471,1.602248497,1.602248497,1.902181471,0,"Correct, no change",0.299932974,0.140442021,0.04
1,78,1,right,right,0.45516191,6,56,50,0.92,2.541,"[""'left'"", ""'right'"", ""'left'"", ""'right'""]","[0.4180591956792341 1.0291659194772365 1.6192045984898868 2.6458197615611425 4.0]",1,right,0.108961232,0.91,4.243,1.050621761,0.496581254,3,-0.529915747,1.34546969,4,-6,-1.327198142,1.637721887,1.944218917,1.944218917,1.637721887,0,"Correct, no change",-0.306497031,-0.652684974,-0.01
1,79,1,left,left,0.643992009,5,45,50,0.83,2.391,"[""'left'"", ""'right'"", ""'left'"", ""'right'"", ""'left'""]","[0.453057899918349 0.9161087094907998 2.169274489842792 2.8231399534779484 3.4517364786661346 4.0]",1,left,0.470440505,0.85,2.59,0.413666837,0.087872403,4,0.499046869,0.616217825,4,5,1.183408833,1.665179795,1.881762306,1.665179795,1.881762306,0,"Correct, no change",-0.216582511,-0.535089155,0.02
1,80,1,right,right,0.603482394,5,50,45,0.83,1.825,"[""'left'"", ""'right'"", ""'left'"", ""'right'""]","[1.0794902592569997 1.6692843256641936 2.4627426204970106 3.4309589469921775 4.0]",1,right,0.167340397,0.86,2.48,0.413666837,0.155990545,3,-0.529915747,0.616217825,4,-5,-1.098961144,1.558010393,1.362499348,1.362499348,1.558010393,0,"Correct, no change",0.195511045,0.003872508,0.03
1,81,1,left,left,0.471707758,4,46,50,0.86,2.895,"[""'left'"", ""'right'"", ""'left'"", ""'right'"", ""'left'""]","[0.5009594915245543 1.0753520867765474 1.82420222221117 3.09264488664121 3.904611916968861 4.0]",1,left,0.35631732,0.89,2.542,0.625985145,0.360344971,4,0.499046869,-0.113034039,4,4,0.955171836,1.938223343,1.560817166,1.938223343,1.560817166,0,"Correct, no change",0.377406177,0.24176631,0.03
1,82,1,right,right,0.515037261,4,54,50,0.81,1.311,"[""'left'"", ""'right'"", ""'left'"", ""'right'""]","[1.2464828384836437 1.8699216869026714 2.5382378256035736 3.5717642926574626 4.0]",0,left,1.608130889,0.68,1.56,0.272121298,-1.070136009,3,-0.529915747,-0.113034039,4,-4,-0.870724147,1.656965315,1.096551846,1.096551846,1.656965315,1,Correct to incorrect,0.560413469,0.481114665,-0.13
1,83,0,right,left,3.102484129,3,53,50,0.71,1.906,"[""'left'"", ""'right'"", ""'left'"", ""'right'"", ""'left'""]","[0.5115388442245603 1.1666855305338686 1.9558867677405942 3.0790041701002338 3.8308170260606857 4.0]",0,left,0.057395013,0.61,3.429,-0.435606395,-1.546963002,4,0.499046869,-0.842285903,4,-3,-0.642487149,1.947447063,1.541014093,1.947447063,1.541014093,0,"Incorrect, no change",0.406432969,0.27972936,-0.1
1,84,1,left,left,4.379852018,4,50,54,0.53,3.373,"[""'left'"", ""'right'"", ""'left'"", ""'right'""]","[0.6467486052388267 2.1003313674045785 2.979655529572483 3.8808297556133766 4.0]",0,right,0.4197903,0.56,1.625,-1.709516243,-1.887553712,3,-0.529915747,-0.113034039,4,4,0.955171836,2.354756988,0.998494407,2.354756988,0.998494407,1,Correct to incorrect,1.356262582,1.521975786,0.03
1,85,0,right,left,0.516122622,4,50,46,0.82,1.84,"[""'left'"", ""'right'"", ""'left'"", ""'right'""]","[0.40710551156735164 0.9197864514826506 2.0237465243189945 3.4142203742921993 4.0]",0,left,0.436857019,0.93,2.244,0.342894067,0.632817538,3,-0.529915747,-0.113034039,4,-4,-0.870724147,1.90315479,1.689739699,1.90315479,1.689739699,0,"Incorrect, no change",0.213415091,0.027288537,0.11
1,86,1,right,right,0.544507093,5,50,45,0.86,1.356,"[""'left'"", ""'right'"", ""'left'"", ""'right'""]","[0.3769614267584984 0.9828235194181616 1.5421889749268303 2.216650934104109 4.0]",1,right,0.365037275,0.99,1.316,0.625985145,1.04152639,3,-0.529915747,0.616217825,4,-5,-1.098961144,1.280324052,2.342714521,2.342714521,1.280324052,0,"Correct, no change",-1.06239047,-1.641289573,0.13
1,87,1,left,left,0.863715141,5,50,55,0.77,1.546,"[""'left'"", ""'right'"", ""'left'""]",[0.4641213460963627 1.027741293371946 2.1155309903915622 4.0],1,left,0.376101861,0.87,2.854,-0.010969779,0.224108687,2,-1.558878364,0.616217825,4,5,1.183408833,2.448088957,1.087789697,2.448088957,1.087789697,0,"Correct, no change",1.36029926,1.527255206,0.1
1,88,1,left,left,0.563422376,4,46,50,0.79,7.584,"[""'left'"", ""'right'"", ""'left'"", ""'right'"", ""'left'""]","[0.4057823797375022 1.008461372446618 2.5682687271910254 3.237756041402463 3.755040716023359 4.0]",1,left,0.285950142,0.93,2.14,0.130575759,0.632817538,4,0.499046869,-0.113034039,4,4,0.955171836,1.517125591,2.077092029,1.517125591,2.077092029,0,"Correct, no change",-0.559966438,-0.984188079,0.14
1,89,1,left,left,0.561888558,4,46,50,0.9,1.22,"[""'left'"", ""'right'"", ""'left'"", ""'right'"", ""'left'""]","[0.37608988743522787 0.9307717812844203 2.151951754865877 2.6779156154916564 2.99306446283299 4.0]",1,left,0.263189766,0.95,1.939,0.909076222,0.769053822,4,0.499046869,-0.113034039,4,4,0.955171836,2.087581292,1.536328821,2.087581292,1.536328821,0,"Correct, no change",0.551252471,0.469133339,0.05
1,90,0,right,left,0.822512742,3,53,50,0.66,4.247,"[""'left'"", ""'right'"", ""'left'"", ""'right'""]","[0.35417795766989 0.8513895735159167 2.0858333663600206 3.472034763501142 4.0]",1,right,0.547554772,0.85,2.981,-0.789470242,0.087872403,3,-0.529915747,-0.842285903,4,-3,-0.642487149,1.883413013,1.762409029,1.883413013,1.762409029,1,Incorrect to correct,0.121003984,-0.093572476,0.19
1,91,1,left,left,0.596074167,4,50,54,0.73,1.556,"[""'left'"", ""'right'"", ""'left'"", ""'right'"", ""'left'"", ""'right'""]","[0.28085746697252034 0.8587815498249256 1.9028178060871141 2.4335521827415505 2.820774224561319 3.744411471478088 4.0]",1,left,0.504253209,0.81,1.622,-0.294060857,-0.184600165,5,1.528009485,-0.113034039,4,4,0.955171836,2.032295706,1.686846827,2.032295706,1.686846827,0,"Correct, no change",0.34544888,0.199970563,0.08
1,92,1,left,left,0.579993312,4,50,54,0.87,1.989,"[""'left'"", ""'right'"", ""'left'""]",[1.6084638812935736 2.4195796141320898 3.868737682059873 4.0],1,left,0.139962886,0.97,2.839,0.696757914,0.905290106,2,-1.558878364,-0.113034039,4,4,0.955171836,0.942378051,1.449158068,0.942378051,1.449158068,0,"Correct, no change",-0.506780017,-0.914627559,0.1
1,93,1,left,left,1.386451997,3,47,50,0.76,1.121,"[""'left'"", ""'right'"", ""'left'"", ""'right'"", ""'left'""]","[0.47858513559185667 1.2304530151341169 2.134250697130483 2.755468930634379 3.382195794431027 4.0]",1,left,0.192365293,0.94,1.399,-0.081742549,0.70093568,4,0.499046869,-0.842285903,4,3,0.726934838,1.990890319,1.530524546,1.990890319,1.530524546,0,"Correct, no change",0.460365773,0.350266045,0.18
1,94,1,right,right,0.714133106,3,50,47,0.76,2.244,"[""'left'"", ""'right'"", ""'left'"", ""'right'"", ""'left'""]","[0.3547629752320063 1.4814204180838715 2.246862871827034 2.8974018320877803 3.495138110618427 4.0]",1,right,0.355277574,0.69,1.975,-0.081742549,-1.002017867,4,0.499046869,-0.842285903,4,-3,-0.642487149,2.282058292,1.363178732,1.363178732,2.282058292,0,"Correct, no change",0.91887956,0.949938983,-0.07
1,95,1,left,left,2.124987064,2,48,50,0.84,3.698,"[""'left'"", ""'right'"", ""'left'"", ""'right'"", ""'left'""]","[0.43363257989039994 0.9657941485129413 2.1658712955650117 2.9483200274153205 3.692203500584583 4.0]",1,left,1.284170571,0.72,4.387,0.484439606,-0.797663442,4,0.499046869,-1.571537768,4,2,0.49869784,1.6224068,1.94396062,1.6224068,1.94396062,0,"Correct, no change",-0.32155382,-0.672377183,-0.12
1,96,0,left,right,0.94240656,2,50,52,0.8,4.489,"[""'left'"", ""'right'"", ""'left'"", ""'right'""]","[0.348470900367829 1.1089352879935177 2.250167422789673 3.6821316192581435 4.0]",0,right,0.205404456,0.94,1.796,0.201348529,0.70093568,3,-0.529915747,-1.571537768,4,2,0.49869784,2.192428584,1.459100516,1.459100516,2.192428584,0,"Incorrect, no change",0.733328069,0.707263165,0.14
1,97,1,left,left,0.608669721,3,47,50,0.92,2.889,"[""'left'"", ""'right'"", ""'left'"", ""'right'"", ""'left'"", ""'right'""]","[0.3841763582749991 0.9420638746814802 1.6450631160405464 2.2664407183619915 3.472718994566094 3.874782578448503 4.0]",0,right,0.212793011,0.88,2.735,1.050621761,0.292226829,5,1.528009485,-0.842285903,4,3,0.726934838,1.581328703,2.034494939,1.581328703,2.034494939,1,Correct to incorrect,-0.453166237,-0.844508112,-0.04
1,98,0,left,right,0.608582196,3,50,53,0.7,4.186,"[""'left'"", ""'right'"", ""'left'"", ""'right'""]","[0.9484426188137149 1.869883483999729 3.705670593488321 3.880064272103482 4.0]",0,right,0.157037017,0.96,2.133,-0.506379165,0.837171964,3,-0.529915747,-0.842285903,4,3,0.726934838,1.095834544,1.955722837,1.955722837,1.095834544,0,"Incorrect, no change",-0.859888294,-1.376444593,0.26
1,99,1,left,left,0.578118519,4,50,54,0.66,1.11,"[""'left'"", ""'right'"", ""'left'"", ""'right'"", ""'left'""]","[0.3871812730540114 0.7800060269364621 1.8359923788084416 2.977484236314922 3.586264574478264 4.0]",1,left,0.809459038,0.73,5.295,-0.789470242,-0.7295453,4,0.499046869,-0.113034039,4,4,0.955171836,1.948052037,1.66476669,1.948052037,1.66476669,0,"Correct, no change",0.283285347,0.118669216,0.07
1,100,1,left,left,0.88973987,4,50,54,0.68,4.7,"[""'left'"", ""'right'"", ""'left'"", ""'right'""]","[1.7787094090599567 2.474965553243237 3.007442153251759 3.536793812956603 4.0]",1,left,0.272684897,0.97,1.999,-0.647924703,0.905290106,3,-0.529915747,-0.113034039,4,4,0.955171836,1.225607804,0.995682787,1.225607804,0.995682787,0,"Correct, no change",0.229925017,0.048881247,0.29
1,101,0,right,left,2.012620927,3,53,50,0.62,1.997,"[""'left'"", ""'right'"", ""'left'"", ""'right'"", ""'left'"", ""'right'""]","[0.6237168172883685 1.227742889910587 1.9334933103564254 2.714517701198929 3.198719518575672 3.944764876821864 4.0]",1,right,0.511926005,0.68,1.971,-1.072561319,-1.070136009,5,1.528009485,-0.842285903,5,-3,-0.642487149,2.131095822,1.245187361,2.131095822,1.245187361,1,Incorrect to correct,0.885908461,0.906817322,0.06
1,102,1,left,left,3.651572434,4,50,54,0.6,2.277,"[""'left'"", ""'right'"", ""'left'"", ""'right'"", ""'left'"", ""'right'""]","[0.2954007983280462 0.7457956139078306 1.3219478233913833 1.9984191411385837 2.53971690509934 3.8784851238197007 4.0]",1,left,0.03378676,0.72,1.304,-1.214106858,-0.797663442,5,1.528009485,-0.113034039,5,4,0.955171836,2.465634352,1.23896485,2.465634352,1.23896485,0,"Correct, no change",1.226669502,1.352485872,0.12
1,103,1,left,left,0.579008874,4,50,54,0.84,1.113,"[""'left'"", ""'right'"", ""'left'"", ""'right'"", ""'left'""]","[0.35203945048488094 0.9302754286654817 1.494725006108638 1.9190528987601283 2.2754366463341285 4.0]",1,left,0.033911062,0.98,1.947,0.484439606,0.973408248,4,0.499046869,-0.113034039,5,4,0.955171836,2.727127225,0.920833325,2.727127225,0.920833325,0,"Correct, no change",1.806293899,2.110554821,0.14
1,104,0,left,right,0.948975464,3,50,53,0.67,2.307,"[""'left'"", ""'right'"", ""'left'"", ""'right'"", ""'left'""]","[0.4470175650676538 1.104030491616868 1.7915310439893801 2.603285677589156 3.4422404918259417 4.0]",1,left,0.379430646,0.64,1.767,-0.718697473,-1.342608577,4,0.499046869,-0.842285903,5,3,0.726934838,2.026527068,1.526455367,1.526455367,2.026527068,1,Incorrect to correct,0.500071702,0.402195936,-0.03
1,105,1,right,right,0.46824954,4,54,50,0.78,1.25,"[""'left'"", ""'right'"", ""'right'"", ""'left'"", ""'right'""]","[0.29488106780991075 1.0266607784797088 1.7747525578124623 2.180284337922785 3.334757199179876 4.0]",1,right,0.116347506,0.94,1.481,0.05980299,0.70093568,4,0.499046869,-0.113034039,5,-4,-0.870724147,1.886252572,1.81886636,1.81886636,1.886252572,0,"Correct, no change",0.067386212,-0.163697143,0.16
1,106,1,left,left,0.667337973,4,50,54,0.68,1.688,"[""'left'"", ""'right'"", ""'left'"", ""'right'"", ""'left'""]","[0.3702280228571908 1.1090521774676745 1.8228699673018127 2.881764871406631 3.553587124140904 4.0]",1,left,1.125507364,0.64,1.756,-0.647924703,-1.342608577,4,0.499046869,-0.113034039,5,4,0.955171836,2.244131935,1.385640043,2.244131935,1.385640043,0,"Correct, no change",0.858491892,0.870960223,-0.04
1,107,1,left,left,2.527408158,3,47,50,0.6,1.93,"[""'left'"", ""'right'"", ""'left'"", ""'right'""]","[0.5378783191954426 1.564363193268946 2.594274354418303 3.403485644117609 4.0]",0,right,2.305653716,0.58,1.262,-1.214106858,-1.751317428,3,-0.529915747,-0.842285903,5,3,0.726934838,1.835696164,1.626425517,1.835696164,1.626425517,1,Correct to incorrect,0.209270647,0.021868173,-0.02
1,108,1,left,left,0.541259561,3,47,50,0.82,2.948,"[""'left'"", ""'right'"", ""'left'"", ""'right'"", ""'left'"", ""'right'""]","[0.3690223506928305 1.2583012196155323 2.1165331038137083 2.639445864067966 2.9273101422731997 3.8561868885954027 4.0]",1,left,0.554124816,0.82,3.294,0.342894067,-0.116482023,5,1.528009485,-0.842285903,5,3,0.726934838,2.341068376,1.289909274,2.341068376,1.289909274,0,"Correct, no change",1.051159102,1.12294242,0
1,109,1,left,left,0.703733649,2,50,52,0.7,3.448,"[""'left'"", ""'right'"", ""'left'"", ""'right'""]","[0.37231236174557125 1.649411119378783 2.8074394163268153 3.9124523497193877 4.0]",1,left,0.579659749,0.76,1.202,-0.506379165,-0.525190874,3,-0.529915747,-1.571537768,5,2,0.49869784,2.382111691,1.245575947,2.382111691,1.245575947,0,"Correct, no change",1.136535744,1.234603319,0.06
1,110,0,right,left,2.386957187,2,50,48,0.58,1.699,"[""'left'"", ""'right'"", ""'left'"", ""'right'""]","[0.4836262079916196 1.4923296271772415 3.1600596079297247 3.7379395008611027 4.0]",1,right,0.125087988,0.68,1.281,-1.355652397,-1.070136009,3,-0.529915747,-1.571537768,5,-2,-0.414250151,1.586583312,1.92979048,1.586583312,1.92979048,1,Incorrect to correct,-0.343207168,-0.700696781,0.1
1,111,1,right,right,0.432121855,3,50,47,0.93,1.866,"[""'left'"", ""'right'"", ""'left'"", ""'right'""]","[0.38889498677963275 1.222973514268233 2.141255512691714 3.142824397509685 4.0]",1,right,0.14181088,0.87,1.56,1.12139453,0.224108687,3,-0.529915747,-0.842285903,5,-3,-0.642487149,1.835647412,1.775457601,1.775457601,1.835647412,0,"Correct, no change",0.060189811,-0.173109044,-0.06
1,112,1,right,right,0.456537785,3,50,47,0.85,1.745,"[""'left'"", ""'right'"", ""'left'"", ""'right'""]","[0.3303707078375737 1.26248985413622 2.4654370654243394 3.2448269993001304 4.0]",1,right,0.125175227,0.89,1.534,0.555212375,0.360344971,3,-0.529915747,-0.842285903,5,-3,-0.642487149,1.71150908,1.958120212,1.958120212,1.71150908,0,"Correct, no change",-0.246611132,-0.574362459,0.04
1,113,0,right,left,1.954404837,2,52,50,0.6,1.369,"[""'left'"", ""'right'"", ""'left'"", ""'right'"", ""'left'""]","[0.33266145643938216 1.04638174334832 2.3713045464028255 3.1977151243881963 3.7639300179871498 4.0]",0,left,0.234403879,0.99,1.958,-1.214106858,1.04152639,4,0.499046869,-1.571537768,5,-2,-0.414250151,1.776200847,1.891137697,1.776200847,1.891137697,0,"Incorrect, no change",-0.11493685,-0.402150618,0.39
1,114,1,right,right,1.132011836,3,53,50,0.81,1.371,"[""'left'"", ""'right'"", ""'left'"", ""'right'""]","[0.30975283007865073 1.0645999657317589 2.3921222766548453 3.6072659067322093 4.0]",1,right,0.436050767,0.97,1.535,0.272121298,0.905290106,3,-0.529915747,-0.842285903,5,-3,-0.642487149,1.969990766,1.720256404,1.720256404,1.969990766,0,"Correct, no change",0.249734362,0.074789144,0.16
1,115,1,right,right,0.699450363,3,53,50,0.71,1.436,"[""'left'"", ""'right'"", ""'left'"", ""'right'""]","[0.360915067823953 1.3521971087247948 2.9119092413093313 3.850569636619184 4.0]",1,right,0.345355083,0.62,1.002,-0.435606395,-1.478844861,3,-0.529915747,-0.842285903,5,-3,-0.642487149,1.929942436,1.709142496,1.709142496,1.929942436,0,"Correct, no change",0.22079994,0.036946903,-0.09
1,116,0,right,left,0.703929796,2,50,48,0.78,0.972,"[""'left'"", ""'right'"", ""'left'"", ""'right'"", ""'left'""]","[0.29540992140755407 1.0238465931142855 2.0081774165519164 2.9295986100987648 3.493716620570922 4.0]",1,right,0.07244496,0.1,4.464,0.05980299,-5.020988239,4,0.499046869,-1.571537768,5,-2,-0.414250151,2.156141245,1.548448834,2.156141245,1.548448834,1,Incorrect to correct,0.607692411,0.542949014,-0.68
1,117,1,left,left,1.093244159,3,47,50,0.69,2.252,"[""'left'"", ""'right'"", ""'left'"", ""'right'""]","[0.5374509598768782 1.5417006050047348 2.6313479893724434 3.596033968649863 4.0]",0,right,0.496375143,0.68,1.497,-0.577151934,-1.070136009,3,-0.529915747,-0.842285903,5,3,0.726934838,1.968935624,1.493613416,1.968935624,1.493613416,1,Correct to incorrect,0.475322209,0.369827005,-0.01
1,118,1,right,right,1.464951832,3,50,47,0.71,1.58,"[""'left'"", ""'right'"", ""'left'"", ""'right'""]","[0.34110800387861673 1.370589239839319 2.5836191661110206 3.480350166653807 4.0]",1,right,0.057694934,0.83,2.387,-0.435606395,-0.048363881,3,-0.529915747,-0.842285903,5,-3,-0.642487149,1.926212237,1.73267976,1.73267976,1.926212237,0,"Correct, no change",0.193532477,0.001284813,0.12
1,119,0,right,left,0.793300637,2,50,48,0.78,1.865,"[""'left'"", ""'right'"", ""'left'""]",[0.41694988606104744 1.324004507943755 2.83450816757977 4.0],0,left,0.431473831,0.96,3.011,0.05980299,0.837171964,2,-1.558878364,-1.571537768,5,-2,-0.414250151,2.072546454,1.51050366,2.072546454,1.51050366,0,"Incorrect, no change",0.562042795,0.483245598,0.18
1,120,1,right,right,0.00016165,3,53,50,0.15,6.804,"[""'left'"", ""'right'"", ""'left'"", ""'right'""]","[0.3675484029336076 0.988892363897321 2.6013903575294535 3.3637392315577017 4.0]",1,right,0.066341049,0.5,3.012,-4.398881478,-2.296262563,3,-0.529915747,-0.842285903,5,-3,-0.642487149,1.383692835,2.248758762,2.248758762,1.383692835,0,"Correct, no change",-0.865065927,-1.383216226,0.35
1,121,1,left,left,0.454933548,3,50,53,0.87,1.791,"[""'left'"", ""'right'"", ""'left'""]",[0.2626851450877439 0.9328318869920622 2.089532490568672 4.0],1,left,0.876523661,0.98,1.419,0.696757914,0.973408248,2,-1.558878364,-0.842285903,5,3,0.726934838,2.580614251,1.156700604,2.580614251,1.156700604,0,"Correct, no change",1.423913648,1.610454071,0.11
1,122,1,right,right,0.469336327,2,52,50,0.83,2.579,"[""'left'"", ""'right'"", ""'left'"", ""'right'""]","[0.402260300314083 1.1153000624071865 2.221195938975143 3.5088443992972316 4.0]",1,right,0.049639824,0.82,1.393,0.413666837,-0.116482023,3,-0.529915747,-1.571537768,5,-2,-0.414250151,2.000688222,1.597051477,1.597051477,2.000688222,0,"Correct, no change",0.403636745,0.276072283,-0.01
1,123,1,left,left,0.720727098,2,50,52,0.82,1.08,"[""'left'"", ""'right'"", ""'left'""]",[1.4203721817866608 2.491371988777246 3.6174732087893062 4.0],1,left,0.348040405,0.94,1.779,0.342894067,0.70093568,2,-1.558878364,-1.571537768,5,2,0.49869784,1.453526598,1.12610122,1.453526598,1.12610122,0,"Correct, no change",0.327425378,0.176398303,0.12
1,124,1,right,right,0.702460694,1,50,49,0.83,3.073,"[""'left'"", ""'right'""]",[0.4077213195268996 1.570608227251796 4.0],1,right,0.373106355,1,1.262,0.413666837,1.109644531,1,-2.58784098,-2.300789632,5,-1,-0.186013153,1.162886908,2.429391773,2.429391773,1.162886908,0,"Correct, no change",-1.266504865,-1.908243114,0.17
1,125,0,left,right,0.844030383,1,49,50,0.66,0.995,"[""'left'"", ""'right'"", ""'left'"", ""'right'""]","[0.35711901087415754 1.5104084374797822 2.2744333925293176 2.9323070247410215 4.0]",0,right,0.155675112,0.86,2.154,-0.789470242,0.155990545,3,-0.529915747,-2.300789632,5,1,0.270460842,1.811163059,1.83171793,1.83171793,1.811163059,0,"Incorrect, no change",-0.020554871,-0.278711978,0.2
1,126,1,left,left,1.120736848,2,48,50,0.56,1.228,"[""'left'"", ""'right'"", ""'left'"", ""'right'"", ""'left'""]","[0.40581202975226915 1.5270748808252392 2.6947479848677176 3.305920565904671 3.9760159904799366 4.0]",1,left,0.568111354,0.66,1.612,-1.497197935,-1.206372293,4,0.499046869,-1.571537768,6,2,0.49869784,1.756419442,1.837768529,1.756419442,1.837768529,0,"Correct, no change",-0.081349087,-0.358222446,0.1
1,127,0,left,right,0.437458002,2,50,52,0.76,1.064,"[""'left'"", ""'right'"", ""'left'"", ""'right'""]","[0.384329454976978 1.272442565215897 2.0999749970578705 2.8968553025188157 4.0]",1,left,0.15606883,0.77,1.436,-0.081742549,-0.457072732,3,-0.529915747,-1.571537768,6,2,0.49869784,1.684993416,1.930677129,1.930677129,1.684993416,1,Incorrect to correct,-0.245683714,-0.573149524,0.01
1,128,1,left,left,0.470841636,3,47,50,0.87,1.114,"[""'left'"", ""'right'"", ""'left'""]",[0.40258987160996185 1.0387388823110086 2.1661104913437157 4.0],1,left,0.123372278,1,1.37,0.696757914,1.109644531,2,-1.558878364,-0.842285903,6,3,0.726934838,2.470038519,1.127371609,2.470038519,1.127371609,0,"Correct, no change",1.34266691,1.504194519,0.13
1,129,1,left,left,1.18510161,3,50,53,0.9,1.889,"[""'left'"", ""'right'"", ""'left'"", ""'right'"", ""'left'""]","[0.35487843922237516 0.8863489344657864 2.2871278745187738 3.21429974509374 3.909486208038288 4.0]",1,left,0.141626138,0.9,1.323,0.909076222,0.428463113,4,0.499046869,-0.842285903,6,3,0.726934838,1.549156158,2.095965403,1.549156158,2.095965403,0,"Correct, no change",-0.546809245,-0.966980281,0
1,130,1,right,right,0.812528955,2,52,50,0.58,2.386,"[""'left'"", ""'right'"", ""'left'"", ""'right'""]","[0.35677062322429265 1.2449416080053197 2.1660258177471405 3.3186016483705316 4.0]",1,right,0.089726926,0.85,1.689,-1.355652397,0.087872403,3,-0.529915747,-1.571537768,6,-2,-0.414250151,2.040746815,1.602482561,1.602482561,2.040746815,0,"Correct, no change",0.438264254,0.3213603,0.27
1,131,0,right,left,1.050552417,2,52,50,0.6,0.793,"[""'left'"", ""'right'"", ""'left'"", ""'right'""]","[0.4045231094751216 2.0891895197455597 2.8898302451234485 3.4968264507770073 4.0]",0,left,0.338230812,0.85,1.545,-1.214106858,0.087872403,3,-0.529915747,-1.571537768,6,-2,-0.414250151,2.291662616,1.303814275,2.291662616,1.303814275,0,"Incorrect, no change",0.987848341,1.040140658,0.25
1,132,1,left,left,2.845628063,3,50,53,0.6,0.973,"[""'left'"", ""'right'"", ""'left'"", ""'right'""]","[0.5578820995724527 1.6373820521039306 2.825214884192974 3.38245979358544 4.0]",1,left,0.328942375,0.84,2.305,-1.214106858,0.019754261,3,-0.529915747,-0.842285903,6,3,0.726934838,1.636744862,1.805373039,1.636744862,1.805373039,0,"Correct, no change",-0.168628177,-0.472371485,0.24
1,133,1,left,left,0.584838808,3,47,50,0.94,1.567,"[""'left'"", ""'right'"", ""'left'"", ""'right'"", ""'left'""]","[0.4117012635761057 1.1210433269370697 2.330411476606969 2.8920095210742147 3.475054788377747 4.0]",1,left,0.265960331,1,1.34,1.1921673,1.109644531,4,0.499046869,-0.842285903,6,3,0.726934838,1.795885319,1.792413417,1.795885319,1.792413417,0,"Correct, no change",0.003471902,-0.247288264,0.06
1,134,1,right,right,0.546887362,2,52,50,0.92,1.423,"[""'left'"", ""'right'"", ""'left'""]",[0.4624389929631434 1.3552889778657118 2.6493962943750375 4.0],1,right,0.033637084,0.98,2.382,1.050621761,0.973408248,2,-1.558878364,-1.571537768,6,-2,-0.414250151,2.243453691,1.294107317,1.294107317,2.243453691,0,"Correct, no change",0.949346374,0.989785383,0.06
1,135,0,right,left,0.613362406,2,50,48,0.86,1.406,"[""'left'"", ""'right'"", ""'left'"", ""'right'"", ""'left'""]","[0.4659014872631815 0.9924338298696966 1.931230786292872 2.710605324973585 3.4157413629400253 4.0]",0,left,0.280026696,0.82,3.556,0.625985145,-0.116482023,4,0.499046869,-1.571537768,6,-2,-0.414250151,1.890165518,1.643932994,1.890165518,1.643932994,0,"Incorrect, no change",0.246232524,0.070209222,-0.04
1,136,0,right,left,1.967425184,3,50,47,0.73,1.716,"[""'left'"", ""'right'"", ""'left'"", ""'right'"", ""'left'""]","[0.35769547554809833 1.4474968119102414 2.4314039822784252 2.896563078833424 3.4932943929816247 4.0]",0,left,0.469426418,0.93,1.374,-0.294060857,0.632817538,4,0.499046869,-0.842285903,6,-3,-0.642487149,2.06166604,1.580638485,2.06166604,1.580638485,0,"Incorrect, no change",0.481027555,0.377288813,0.2
1,137,1,left,left,0.941958674,4,50,54,0.68,2.774,"[""'left'"", ""'right'"", ""'left'"", ""'right'""]","[0.42293206127214944 1.6105924101102573 3.2329550200738595 3.7779633120990184 4.0]",0,right,0.486155582,0.72,2.934,-0.647924703,-0.797663442,3,-0.529915747,-0.113034039,6,4,0.955171836,1.732668641,1.844399298,1.732668641,1.844399298,1,Correct to incorrect,-0.111730657,-0.397957359,0.04
1,138,0,left,right,2.557134577,4,46,50,0.66,1.079,"[""'left'"", ""'right'"", ""'left'""]",[0.43519946903688833 1.4050784770297469 2.49230225793508 4.0],1,left,0.156347369,0.92,1.383,-0.789470242,0.564699396,2,-1.558878364,-0.113034039,6,4,0.955171836,2.47757675,1.087223781,1.087223781,2.47757675,1,Incorrect to correct,1.390352969,1.566561322,0.26
1,139,1,right,right,0.498681572,5,55,50,0.92,1.496,"[""'left'"", ""'right'"", ""'left'"", ""'right'""]","[0.3224296361004235 1.15505958940048 2.6525474635418504 3.9295980399074324 4.0]",1,right,0.358163889,0.94,1.369,1.050621761,0.70093568,3,-0.529915747,0.616217825,6,-5,-1.098961144,2.10968053,1.567889834,1.567889834,2.10968053,0,"Correct, no change",0.541790695,0.456758639,0.02
1,140,1,right,right,0.497260367,5,50,45,0.88,1.171,"[""'left'"", ""'right'"", ""'left'"", ""'right'""]","[0.38630175103389774 1.195443477241497 1.8079426112599322 2.3867425098796957 4.0]",1,right,2.764582033,1,1.374,0.767530683,1.109644531,3,-0.529915747,0.616217825,6,-5,-1.098961144,1.387941625,2.225756624,2.225756624,1.387941625,0,"Correct, no change",-0.837814999,-1.347575762,0.12
1,141,0,right,left,0.512953492,4,50,46,0.92,1.917,"[""'left'"", ""'right'"", ""'left'""]",[0.36909505024232203 1.5729956234863494 2.802565410351235 4.0],0,left,0.156357918,0.84,2.59,1.050621761,0.019754261,2,-1.558878364,-0.113034039,6,-4,-0.870724147,2.401335163,1.229569787,2.401335163,1.229569787,0,"Incorrect, no change",1.171765376,1.28067883,-0.08
1,142,0,left,right,2.887570857,5,50,55,0.78,1.56,"[""'left'"", ""'right'"", ""'left'"", ""'right'""]","[0.5093473091328633 1.6967544924773392 3.099038170686981 3.9140072648224304 4.0]",0,right,0.108480274,0.9,1.169,0.05980299,0.428463113,3,-0.529915747,0.616217825,6,5,1.183408833,2.002376277,1.488276413,1.488276413,2.002376277,0,"Incorrect, no change",0.514099864,0.420542842,0.12
1,143,1,right,right,0.628932654,6,56,50,0.88,1.144,"[""'left'"", ""'right'"", ""'left'"", ""'right'""]","[0.43770318455426604 1.3560940897550608 2.4584254075525678 3.368566481742164 4.0]",1,right,0.404062394,0.94,1.388,0.767530683,0.70093568,3,-0.529915747,1.34546969,6,-6,-1.327198142,1.828531979,1.733764836,1.733764836,1.828531979,0,"Correct, no change",0.094767143,-0.127886652,0.06
1,144,1,left,left,1.016926166,6,50,56,0.74,0.832,"[""'left'"", ""'right'"", ""'left'""]",[0.5733508534467546 1.6508112272022117 3.0570349359804823 4.0],1,left,0.280743714,0.94,1.697,-0.223288087,0.70093568,2,-1.558878364,1.34546969,6,6,1.411645831,2.020425438,1.406223709,2.020425438,1.406223709,0,"Correct, no change",0.614201729,0.551462306,0.2
1,145,1,right,right,0.684134706,5,50,45,0.74,1.373,"[""'left'"", ""'right'"", ""'left'"", ""'right'""]","[0.39941104810714023 2.038276456150925 3.362619088278734 3.9270267565734684 4.0]",1,right,0.124150591,1,3.262,-0.223288087,1.109644531,3,-0.529915747,0.616217825,6,-5,-1.098961144,2.203273076,1.397315876,1.397315876,2.203273076,0,"Correct, no change",0.805957201,0.802252076,0.26
1,146,0,left,right,0.455874366,5,50,55,0.94,2.975,"[""'left'"", ""'right'"", ""'left'"", ""'right'""]","[0.377093711435009 1.9165617274811666 3.309832657039806 3.6224412965384545 4.0]",0,right,0.17444357,1,1.284,1.1921673,1.109644531,3,-0.529915747,0.616217825,6,5,1.183408833,1.852076656,1.770829633,1.770829633,1.852076656,0,"Incorrect, no change",0.081247023,-0.14556911,0.06
1,147,0,right,left,3.178696637,6,56,50,0.52,1.627,"[""'left'"", ""'right'"", ""'left'"", ""'right'""]","[0.34473015209732694 1.4917511668281804 2.5055900252809806 3.292002165591839 4.0]",1,right,0.63472695,0.88,1.996,-1.780289013,0.292226829,3,-0.529915747,1.34546969,6,-6,-1.327198142,1.933433155,1.721836693,1.933433155,1.721836693,1,Incorrect to correct,0.211596462,0.02491002,0.36
1,148,1,right,right,0.530986687,7,50,43,1,2.294,"[""'left'"", ""'right'"", ""'left'"", ""'right'""]","[0.6367177777792676 1.3189238071645377 2.00801434148525 2.787632352385117 4.0]",1,right,0.124925198,1,1.282,1.616803916,1.109644531,3,-0.529915747,2.074721554,6,-7,-1.55543514,1.46182404,1.901458182,1.901458182,1.46182404,0,"Correct, no change",-0.439634142,-0.826809994,0
1,149,1,right,right,0.73180765,7,57,50,0.99,2.492,"[""'left'"", ""'right'"", ""'left'"", ""'right'""]","[0.3858749619030277 1.5090445368841756 2.649529719434213 3.13419795432128 4.0]",1,right,0.083568847,1,1.015,1.546031146,1.109644531,3,-0.529915747,2.074721554,6,-7,-1.55543514,1.60783781,2.006287228,2.006287228,1.60783781,0,"Correct, no change",-0.398449418,-0.772946043,0.01
1,150,1,left,left,0.617671351,6,50,56,0.9,1.234,"[""'left'"", ""'right'"", ""'left'""]",[0.4302556144721166 1.0726562163690687 2.326274444512819 4.0],1,left,0.373083547,1,1.162,0.909076222,1.109644531,2,-1.558878364,1.34546969,6,6,1.411645831,2.316126157,1.253618228,2.316126157,1.253618228,0,"Correct, no change",1.062507929,1.137785125,0.1
1,151,1,left,left,0.619558118,6,44,50,0.78,1.277,"[""'left'"", ""'right'"", ""'left'"", ""'right'"", ""'left'""]","[0.4725912714347942 1.1259760627472133 1.903799392574001 2.4658672757104796 2.8595766833459493 4.0]",1,left,0.108434659,0.96,1.495,0.05980299,0.837171964,4,0.499046869,1.34546969,7,6,1.411645831,2.355875991,1.171532737,2.355875991,1.171532737,0,"Correct, no change",1.184343254,1.297128963,0.18
1,152,1,left,left,1.106702129,5,50,55,0.76,1.703,"[""'left'"", ""'right'"", ""'left'"", ""'right'"", ""'left'""]","[0.4431508042434871 1.3184713593691413 2.429652920938679 2.8794841011767858 3.3532254509991617 4.0]",1,left,0.328771318,0.9,1.911,-0.081742549,0.428463113,4,0.499046869,0.616217825,7,5,1.183408833,1.971926284,1.584922911,1.971926284,1.584922911,0,"Correct, no change",0.387003373,0.254318121,0.14
1,153,0,right,left,2.18680563,5,55,50,0.7,0.897,"[""'left'"", ""'right'"", ""'left'"", ""'right'"", ""'left'""]","[0.3521047375324997 1.3691962594239158 2.678263432953827 3.3923224142417894 3.958860892118537 4.0]",0,left,0.066319381,0.92,1.271,-0.506379165,0.564699396,4,0.499046869,0.616217825,7,-5,-1.098961144,1.772289611,1.875605651,1.772289611,1.875605651,0,"Incorrect, no change",-0.10331604,-0.386952198,0.22
1,154,1,left,left,1.107804026,6,44,50,0.64,0.968,"[""'left'"", ""'right'"", ""'left'"", ""'right'""]","[0.37112721651647007 1.3350554098869907 2.8170126642617106 3.912694966653362 4.0]",0,right,1.058815932,0.58,2.392,-0.931015781,-1.751317428,3,-0.529915747,1.34546969,7,6,1.411645831,2.059610496,1.569262288,2.059610496,1.569262288,1,Correct to incorrect,0.490348208,0.389478944,-0.06
1,155,1,left,left,0.55706758,6,44,50,0.94,1.578,"[""'left'"", ""'right'"", ""'left'"", ""'right'""]","[0.4483344247782952 1.1388530063559301 2.5207320588197035 3.9751376088461257 4.0]",1,left,0.627878938,0.65,3.326,1.1921673,-1.274490435,3,-0.529915747,1.34546969,7,6,1.411645831,2.144924132,1.406741444,2.144924132,1.406741444,0,"Correct, no change",0.738182688,0.71361234,-0.29
1,156,0,right,left,0.795965146,5,55,50,0.84,1.011,"[""'left'"", ""'right'"", ""'left'"", ""'right'""]","[0.40419553385072504 1.9065055264472903 3.2618056230676302 3.9929401608569606 4.0]",1,right,0.331535326,0.86,1.69,0.484439606,0.155990545,3,-0.529915747,0.616217825,7,-5,-1.098961144,2.23344453,1.362359936,2.23344453,1.362359936,1,Incorrect to correct,0.871084595,0.887429745,0.02
1,157,1,right,right,0.53675504,6,50,44,0.9,1.893,"[""'left'"", ""'right'"", ""'left'"", ""'right'""]","[0.3443618077035353 1.6343663036714133 2.4611229885376815 2.932736379738344 4.0]",1,right,0.156755912,0.99,1.889,0.909076222,1.04152639,3,-0.529915747,1.34546969,7,-6,-1.327198142,1.761617887,1.894020305,1.894020305,1.761617887,0,"Correct, no change",-0.132402418,-0.424993178,0.09
1,158,0,right,left,1.958344298,6,56,50,0.59,1.529,"[""'left'"", ""'right'"", ""'left'"", ""'right'"", ""'left'""]","[0.2797350429245853 1.2166931283536542 2.5828297345178726 3.208575582018966 3.706363092347601 4.0]",0,left,0.195505913,0.77,1.711,-1.284879627,-0.457072732,4,0.499046869,1.34546969,7,-6,-1.327198142,1.856340841,1.863924116,1.856340841,1.863924116,0,"Incorrect, no change",-0.007583276,-0.261746916,0.18
1,159,1,left,left,1.239442956,7,43,50,0.7,0.998,"[""'left'"", ""'right'"", ""'left'"", ""'right'"", ""'left'""]","[0.5262520929645689 1.975652492725203 2.757013582271611 3.347006360785599 3.941530744643387 4.0]",1,left,0.139464823,0.88,1.578,-0.506379165,0.292226829,4,0.499046869,2.074721554,7,7,1.639882829,2.097862434,1.375885473,2.097862434,1.375885473,0,"Correct, no change",0.72197696,0.692417478,0.18
1,160,1,left,left,0.558180025,7,43,50,0.9,1.713,"[""'left'"", ""'right'"", ""'left'"", ""'right'"", ""'left'""]","[0.3270721438966575 0.9302201199861884 1.7608983041609463 2.556503659066948 3.1822617657089722 4.0]",1,left,0.404810201,1,1.125,0.909076222,1.109644531,4,0.499046869,2.074721554,7,7,1.639882829,2.216491565,1.456436291,2.216491565,1.456436291,0,"Correct, no change",0.760055274,0.742218673,0.1
1,161,0,right,left,3.257741005,6,50,44,0.69,2.466,"[""'left'"", ""'right'"", ""'left'""]",[0.4215405063368962 2.3041561050376913 3.1974796348622476 4.0],1,right,0.295121974,0.74,2.178,-0.577151934,-0.661427158,2,-1.558878364,1.34546969,7,-6,-1.327198142,2.685135964,0.89332353,2.685135964,0.89332353,1,Incorrect to correct,1.791812434,2.091615057,0.05
1,162,1,left,left,0.544490272,7,43,50,0.85,1.436,"[""'left'"", ""'right'"", ""'left'""]",[0.35176575805598986 1.0924119629853521 2.0705439380435564 4.0],1,left,0.15854147,1,0.983,0.555212375,1.109644531,2,-1.558878364,2.074721554,7,7,1.639882829,2.670102267,0.978131975,2.670102267,0.978131975,0,"Correct, no change",1.691970292,1.961035275,0.15
1,163,1,left,left,0.517159517,7,50,57,0.96,5.059,"[""'left'"", ""'right'"", ""'left'""]",[0.35735678117271164 0.84312719826994 1.617044709084439 4.0],1,left,0.38751284,1,1.08,1.333712838,1.109644531,2,-1.558878364,2.074721554,7,7,1.639882829,2.868725708,0.773917511,2.868725708,0.773917511,0,"Correct, no change",2.094808197,2.48789182,0.04
1,164,1,right,right,0.627467544,6,56,50,0.87,1.157,"[""'left'"", ""'right'"", ""'left'"", ""'right'""]","[0.43684647023837897 1.2012061283166986 2.2712132300621306 3.0735847749456298 4.0]",1,right,0.228807439,0.9,1.526,0.696757914,0.428463113,3,-0.529915747,1.34546969,7,-6,-1.327198142,1.566731203,1.996422327,1.996422327,1.566731203,0,"Correct, no change",-0.429691124,-0.813805895,0.03
1,165,1,right,right,0.717125762,6,56,50,0.9,1.342,"[""'left'"", ""'right'"", ""'right'"", ""'left'"", ""'right'""]","[0.44642228403608897 1.0607982068577257 2.0716429841922945 2.4003230711023207 2.898464385914849 4.0]",1,right,0.249822741,1,0.764,0.909076222,1.109644531,4,0.499046869,1.34546969,7,-6,-1.327198142,1.112517238,2.441060478,2.441060478,1.112517238,0,"Correct, no change",-1.328543241,-1.989380773,0.1
1,166,1,right,right,0.62428701,5,50,45,0.92,1.138,"[""'left'"", ""'right'"", ""'left'"", ""'right'""]","[0.2609226798922464 0.8746143716452934 2.0285951567275333 3.103459728867165 4.0]",1,right,0.224672973,0.87,2.032,1.050621761,0.224108687,3,-0.529915747,0.616217825,7,-5,-1.098961144,1.688556264,2.050521056,2.050521056,1.688556264,0,"Correct, no change",-0.361964792,-0.725229173,-0.05
1,167,1,left,left,0.496213209,5,50,55,0.87,1.654,"[""'left'"", ""'right'"", ""'left'"", ""'right'"", ""'left'""]","[0.384960943236365 0.9146145198974409 1.9811286220392503 3.331071474491182 3.6446001196818543 4.0]",1,left,0.13941151,0.78,2.857,0.696757914,-0.38895459,4,0.499046869,0.616217825,7,5,1.183408833,2.234996309,1.380042747,2.234996309,1.380042747,0,"Correct, no change",0.854953562,0.866332574,-0.09
1,168,0,right,left,0.877106683,4,50,46,0.56,1.216,"[""'left'"", ""'right'"", ""'left'"", ""'right'"", ""'left'""]","[0.3854319222846243 1.5256345744237478 2.3238351607506047 2.85411937038225 3.3964947982749436 4.0]",0,left,0.316672972,0.8,1.856,-1.497197935,-0.252718306,4,0.499046869,-0.113034039,7,-4,-0.870724147,2.273992064,1.340576014,2.273992064,1.340576014,0,"Incorrect, no change",0.933416049,0.96895071,0.24
1,169,1,left,left,0.52699819,5,50,55,0.9,3.561,"[""'left'"", ""'right'"", ""'left'""]",[0.9629945030574163 2.253201987576176 3.345422650956607 4.0],1,left,0.072405617,0.85,2.772,0.909076222,0.087872403,2,-1.558878364,0.616217825,7,5,1.183408833,1.944784834,1.092220663,1.944784834,1.092220663,0,"Correct, no change",0.85256417,0.863207578,-0.05
1,170,1,right,right,0.709815608,5,50,45,0.72,1.156,"[""'left'"", ""'right'"", ""'left'"", ""'right'"", ""'left'""]","[0.3607046667711984 1.3445325803768355 2.508801349758869 3.3545363236880803 3.880486784790264 4.0]",0,left,0.576827603,0.59,2.187,-0.364833626,-1.683199286,4,0.499046869,0.616217825,7,-5,-1.098961144,1.949076103,1.69021923,1.69021923,1.949076103,1,Correct to incorrect,0.258856872,0.086720133,-0.13
1,171,1,right,right,0.9476606,4,50,46,0.62,1.404,"[""'left'"", ""'right'"", ""'left'"", ""'right'"", ""'left'""]","[0.40204277185330284 1.63758732142378 2.5229657881609455 3.083345616229053 3.9101775665149034 4.0]",0,left,0.367962078,0.66,3.473,-1.072561319,-1.206372293,4,0.499046869,-0.113034039,7,-4,-0.870724147,1.885746811,1.712210417,1.712210417,1.885746811,1,Correct to incorrect,0.173536394,-0.024867312,0.04
1,172,1,right,right,0.298740416,4,50,46,0.94,1.045,"[""'left'"", ""'right'"", ""'left'"", ""'right'""]","[0.33585539004343445 1.1814529475668678 2.399251109094621 3.579878988035489 4.0]",1,right,0.348232275,1,0.906,1.1921673,1.109644531,3,-0.529915747,-0.113034039,7,-4,-0.870724147,2.026225436,1.637919173,1.637919173,2.026225436,0,"Correct, no change",0.388306263,0.256022122,0.06
1,173,1,left,left,0.438026199,3,47,50,0.9,1.091,"[""'left'"", ""'right'"", ""'left'"", ""'right'"", ""'left'""]","[0.43434446529863635 0.8108534442617383 1.8823188134738302 2.818446413446509 3.7232453535725654 4.0]",1,left,0.739321648,0.92,1.892,0.909076222,0.564699396,4,0.499046869,-0.842285903,7,3,0.726934838,1.589391225,1.976264309,1.589391225,1.976264309,0,"Correct, no change",-0.386873084,-0.757805791,0.02
1,174,1,left,left,0.912353421,3,50,53,0.69,2.376,"[""'left'"", ""'right'"", ""'left'"", ""'right'"", ""'left'""]","[0.40315265166645986 1.05728952696154 2.2925752091141476 3.0973084915640356 3.6783977133018197 4.0]",1,left,0.280370237,0.74,1.195,-0.577151934,-0.661427158,4,0.499046869,-0.842285903,7,3,0.726934838,1.780472444,1.816374904,1.780472444,1.816374904,0,"Correct, no change",-0.035902459,-0.298784511,0.05
1,175,0,right,left,0.612999763,2,50,48,1,2.154,"[""'left'"", ""'right'"", ""'left'"", ""'right'""]","[0.41298220115641016 1.075984715418599 2.750820435816422 3.5588177855606773 4.0]",0,left,0.328493064,1,1.766,1.616803916,1.109644531,3,-0.529915747,-1.571537768,7,-2,-0.414250151,1.470999864,2.116017935,1.470999864,2.116017935,0,"Incorrect, no change",-0.645018071,-1.09542391,0
1,176,0,right,left,0.737152635,3,50,47,0.86,0.974,"[""'left'"", ""'right'"", ""'left'"", ""'right'"", ""'left'""]","[0.2773667481378652 0.7928242407106154 2.0089699842064874 2.7230155659708544 3.1310080120601924 4.0]",0,left,0.189175636,0.76,0.879,0.625985145,-0.525190874,4,0.499046869,-0.842285903,8,-3,-0.642487149,2.098495062,1.62413819,2.098495062,1.62413819,0,"Incorrect, no change",0.474356873,0.368564478,-0.1
1,177,1,right,right,5.194647203,4,50,46,0.51,1.829,"[""'left'"", ""'right'"", ""'left'"", ""'right'""]","[0.5851629624557972 1.8778533504664665 2.7726206078405085 3.627053584128589 4.0]",1,right,0.016866581,0.81,1.719,-1.851061782,-0.184600165,3,-0.529915747,-0.113034039,8,-4,-0.870724147,2.147123364,1.267713673,1.267713673,2.147123364,0,"Correct, no change",0.879409691,0.898317825,0.3
1,178,1,left,left,0.706926443,4,46,50,0.92,1.438,"[""'left'"", ""'right'"", ""'left'"", ""'right'""]","[0.40529600548688904 1.0593767168138584 2.1549997191796137 3.273405335348798 4.0]",1,left,2.578638819,0.85,2.468,1.050621761,0.087872403,3,-0.529915747,-0.113034039,8,4,0.955171836,1.772486328,1.822217667,1.772486328,1.822217667,0,"Correct, no change",-0.04973134,-0.316870783,-0.07
1,179,0,right,left,4.426440741,3,53,50,0.68,0.942,"[""'left'"", ""'right'"", ""'left'"", ""'right'""]","[0.3858641282458848 1.7702725548952003 2.5713312314146606 3.26084541880482 4.0]",1,right,0.233396634,0.84,2.202,-0.647924703,0.019754261,3,-0.529915747,-0.842285903,8,-3,-0.642487149,2.073922614,1.540213258,2.073922614,1.540213258,1,Incorrect to correct,0.533709356,0.446189359,0.16
1,180,1,left,left,0.757373659,4,50,54,0.88,1.592,"[""'left'"", ""'right'"", ""'left'"", ""'right'"", ""'left'""]","[0.3615605257982679 0.9146179410527111 2.1817528688516177 3.1659268893417902 3.757457477178832 4.0]",1,left,0.324858656,0.95,1.936,0.767530683,0.769053822,4,0.499046869,-0.113034039,8,4,0.955171836,1.779773959,1.858665516,1.779773959,1.858665516,0,"Correct, no change",-0.078891557,-0.355008335,0.07
1,181,1,right,right,0.331981502,4,50,46,0.94,1.658,"[""'left'"", ""'right'"", ""'left'"", ""'right'""]","[0.3223603577062022 0.9181026728656434 2.1326230824815866 3.4288138825941132 4.0]",1,right,0.122328256,0.88,1.901,1.1921673,0.292226829,3,-0.529915747,-0.113034039,8,-4,-0.870724147,1.891933115,1.785706527,1.785706527,1.891933115,0,"Correct, no change",0.106226588,-0.112899275,-0.06
1,182,0,left,right,1.130462623,3,50,53,0.6,0.738,"[""'left'"", ""'right'"", ""'left'"", ""'right'""]","[0.43532833255449077 1.5721731207268022 2.8044678578189632 3.3939246553272824 4.0]",0,right,0.107364122,0.9,1.664,-1.214106858,0.428463113,3,-0.529915747,-0.842285903,8,3,0.726934838,1.726301586,1.838370082,1.838370082,1.726301586,0,"Incorrect, no change",-0.112068496,-0.398399206,0.3
1,183,1,right,right,0.71404159,4,54,50,0.77,1.449,"[""'left'"", ""'right'"", ""'left'"", ""'right'""]","[0.32962717674308806 1.0426250296841317 1.836507262683881 2.9956753745500464 4.0]",1,right,0.107465902,0.84,1.472,-0.010969779,0.019754261,3,-0.529915747,-0.113034039,8,-4,-0.870724147,1.872165965,1.798206858,1.798206858,1.872165965,0,"Correct, no change",0.073959106,-0.155100701,0.07
1,184,0,right,left,0.564903451,4,50,46,0.9,0.986,"[""'left'"", ""'right'"", ""'left'"", ""'right'"", ""'left'""]","[0.4371307112269278 1.1789295604066865 2.5708727965975413 3.522064598826546 3.9712343557002896 4.0]",1,right,0.174731518,0.69,1.828,0.909076222,-1.002017867,4,0.499046869,-0.113034039,8,-4,-0.870724147,1.721756296,1.841112993,1.721756296,1.841112993,1,Incorrect to correct,-0.119356697,-0.40793117,-0.21
1,185,1,right,right,0.000183317,5,50,45,0.96,5.256,"[""'left'"", ""'right'"", ""'left'"", ""'right'""]","[0.48353497717835126 1.0284811182136764 1.810979456815403 2.2587830323209346 4.0]",1,right,0.066986792,1,1.311,1.333712838,1.109644531,3,-0.529915747,0.616217825,8,-5,-1.098961144,0.992749717,2.523715306,2.523715306,0.992749717,0,"Correct, no change",-1.53096559,-2.25412135,0.04
1,186,1,left,left,0.37210082,5,45,50,0.94,1.468,"[""'left'"", ""'right'"", ""'left'"", ""'right'""]","[0.44591452756503713 1.0103353102858819 2.0602930162531266 3.4907040081961895 4.0]",1,left,0.937389436,0.86,1.212,1.1921673,0.155990545,3,-0.529915747,0.616217825,8,5,1.183408833,1.994831775,1.559253698,1.994831775,1.559253698,0,"Correct, no change",0.435578077,0.31784715,-0.08
1,187,1,left,left,0.406815569,4,46,50,0.98,2.387,"[""'left'"", ""'right'"", ""'left'""]",[0.40302663910915726 1.1566239126768778 2.728473734219733 4.0],1,left,0.323524976,1,1.562,1.475258377,1.109644531,2,-1.558878364,-0.113034039,8,4,0.955171836,2.025123539,1.571849822,2.025123539,1.571849822,0,"Correct, no change",0.453273718,0.340990613,0.02
1,188,1,right,right,0.561275601,4,50,46,0.66,2.315,"[""'left'"", ""'right'"", ""'left'"", ""'right'""]","[0.44563114186530584 1.5548597939268802 2.491261086324812 3.146187108119193 4.0]",1,right,0.125199746,0.76,1.733,-0.789470242,-0.525190874,3,-0.529915747,-0.113034039,8,-4,-0.870724147,1.764154674,1.790214184,1.790214184,1.764154674,0,"Correct, no change",-0.02605951,-0.285911288,0.1
1,189,1,left,left,0.436483258,3,50,53,0.94,2.017,"[""'left'"", ""'right'"", ""'left'"", ""'right'"", ""'left'""]","[0.29317305600852706 0.9795848256944737 2.3835608354129363 3.2415552344100433 3.5666339851304656 4.0]",1,left,0.189059601,0.98,1.596,1.1921673,0.973408248,4,0.499046869,-0.842285903,8,3,0.726934838,1.977772184,1.72905476,1.977772184,1.72905476,0,"Correct, no change",0.248717423,0.073459129,0.04
1,190,0,right,left,0.682214582,3,53,50,0.78,1.188,"[""'left'"", ""'right'"", ""'left'""]",[0.4935381503019016 1.2707222942735825 2.570451709394547 4.0],0,left,0.214311434,0.95,2.184,0.05980299,0.769053822,2,-1.558878364,-0.842285903,8,-3,-0.642487149,2.206732435,1.299729415,2.206732435,1.299729415,0,"Incorrect, no change",0.907003019,0.934406102,0.17
1,191,0,right,left,0.495067122,4,50,46,0.96,1.62,"[""'right'"", ""'left'"", ""'right'""]",[0.06251819270619308 2.076329967010679 3.2448666276832228 4.0],0,left,2.112314534,0.86,2.25,1.333712838,0.155990545,2,-1.558878364,-0.113034039,8,-4,-0.870724147,1.168536661,2.768945147,1.168536661,2.768945147,0,"Incorrect, no change",-1.600408486,-2.344943102,-0.1
1,192,1,right,right,0.284697429,5,55,50,0.96,2.875,"[""'left'"", ""'right'"", ""'left'"", ""'right'""]","[0.5098279814592388 1.2945586239220574 2.3342326220299583 3.2213843876161263 4.0]",1,right,0.106717239,0.88,2.622,1.333712838,0.292226829,3,-0.529915747,0.616217825,8,-5,-1.098961144,1.671882408,1.81828961,1.81828961,1.671882408,0,"Correct, no change",-0.146407202,-0.443309509,-0.08
1,193,1,left,left,0.428289876,5,50,55,0.98,1.171,"[""'left'"", ""'right'"", ""'left'"", ""'right'"", ""'left'""]","[0.4052176040095219 0.8862913450175256 1.9477529709183727 2.7437665836951055 3.2924705787772837 4.0]",1,left,0.108889102,0.95,1.853,1.475258377,0.769053822,4,0.499046869,0.616217825,8,5,1.183408833,1.984616775,1.610165621,1.984616775,1.610165621,0,"Correct, no change",0.374451154,0.237901546,-0.03
1,194,1,right,right,0.471309764,4,54,50,0.78,1.22,"[""'left'"", ""'right'"", ""'left'"", ""'right'""]","[0.4922158737608697 1.2798436646044138 2.153496121409262 3.1157519400076126 4.0]",1,right,0.201084962,1,1.065,0.05980299,1.109644531,3,-0.529915747,-0.113034039,8,-4,-0.870724147,1.749883609,1.757900517,1.757900517,1.749883609,0,"Correct, no change",-0.008016907,-0.262314046,0.22
1,195,0,right,left,0.61020639,4,54,50,0.8,1.018,"[""'left'"", ""'right'"", ""'left'""]",[0.6682842079171678 1.745039823672414 3.8757960957191244 4.0],0,left,0.261219465,0.86,1.432,0.201348529,0.155990545,2,-1.558878364,-0.113034039,8,-4,-0.870724147,1.20095952,2.130756272,1.20095952,2.130756272,0,"Incorrect, no change",-0.929796752,-1.467875237,0.06
1,196,1,right,right,0.891261714,5,55,50,0.81,1.3,"[""'left'"", ""'right'"", ""'left'"", ""'right'""]","[0.5131670290720649 1.232887167163426 2.3180807774697314 3.2852656256291084 4.0]",1,right,0.451346752,0.99,1.667,0.272121298,1.04152639,3,-0.529915747,0.616217825,8,-5,-1.098961144,1.686904986,1.799927985,1.799927985,1.686904986,0,"Correct, no change",-0.113022998,-0.399647564,0.18
1,197,1,right,right,0.543462785,5,50,45,0.88,1.715,"[""'left'"", ""'right'"", ""'left'"", ""'right'""]","[0.3606459369366348 1.0886643724006717 1.7964059052574157 2.295003089016973 4.0]",1,right,0.108165243,1,1.044,0.767530683,1.109644531,3,-0.529915747,0.616217825,8,-5,-1.098961144,1.226615619,2.412738444,2.412738444,1.226615619,0,"Correct, no change",-1.186122825,-1.803114467,0.12
1,198,1,left,left,0.479976405,4,50,54,0.84,1.112,"[""'left'"", ""'right'""]",[3.1631640213054197 3.677990310716268 4.0],1,left,0.300265966,0.96,1.905,0.484439606,0.837171964,1,-2.58784098,-0.113034039,8,4,0.955171836,0.514826289,0.322009689,0.514826289,0.322009689,0,"Correct, no change",0.1928166,0.000348545,0.12
1,199,0,right,left,0.497290873,4,54,50,0.86,0.936,"[""'left'"", ""'right'"", ""'left'"", ""'right'"", ""'left'""]","[0.7888434413762297 1.4894031138792343 2.383508947888913 3.458541726835392 3.7559510284445423 4.0]",1,right,0.601213598,0.7,1.201,0.625985145,-0.933899725,4,0.499046869,-0.113034039,8,-4,-0.870724147,2.019641423,1.191515136,2.019641423,1.191515136,1,Incorrect to correct,0.828126287,0.83124619,-0.16
1,200,1,left,left,0.498353141,5,50,55,0.9,2.194,"[""'left'"", ""'right'"", ""'left'""]",[0.3136942861274292 1.0752289251831826 2.184560497000348 4.0],1,left,0.281989014,0.96,1.291,0.909076222,0.837171964,2,-1.558878364,0.616217825,8,5,1.183408833,2.576974142,1.109331572,2.576974142,1.109331572,0,"Correct, no change",1.46764257,1.667645484,0.06
2,1,1,right,right,1.447626946,8,50,42,0.77,2.229,"[""'left'"", ""'right'"", ""'left'"", ""'right'""]","[0.4081383918328356 0.7895877690043562 1.2109733067081834 1.6826703440692654 4.0]",1,right,1.155517188,1,1.552,-0.917589881,0.574691534,3,-1.188138314,0.464227221,1,-8,-1.082319299,0.853146415,2.738715194,2.738715194,0.853146415,0,"Correct, no change",-1.885568779,-1.752090823,0.23
2,2,1,left,left,1.834105763,7,43,50,0.93,3.074,"[""'left'"", ""'right'"", ""'left'"", ""'right'"", ""'left'""]","[0.48061010141464067 0.9221048436120327 1.3542055589823576 1.8087458817390143 2.108954460494715 4.0]",1,left,2.076616485,1,3.838,0.590518809,0.574691534,4,-0.440881513,0.069140224,1,7,0.974018824,2.787080604,0.732309294,2.787080604,0.732309294,0,"Correct, no change",2.05477131,1.307164135,0.07
2,3,0,left,right,1.974833416,6,50,56,0.76,1.5,"[""'left'"", ""'right'"", ""'left'"", ""'right'"", ""'left'"", ""'right'""]","[0.8091894964800304 1.1804003822617233 1.5594489369777875 1.993695025697889 2.365628353481952 2.6815536095291463 4.0]",0,right,1.293191426,0.82,3.257,-1.011846674,-1.8033424,5,0.306375288,-0.325946772,1,6,0.836929616,1.121382231,2.069428273,2.069428273,1.121382231,0,"Incorrect, no change",-0.948046042,-1.024204139,0.06
2,4,1,left,left,0.985057083,7,43,50,0.99,1.984,"[""'left'"", ""'right'"", ""'left'"", ""'right'"", ""'left'"", ""'right'""]","[0.8830211304302793 1.1960189853416523 1.5683240828057023 1.9568815594248008 2.289113933720728 2.67904673007979 4.0]",1,left,0.439043742,1,1.445,1.156059567,0.574691534,5,0.306375288,0.069140224,1,7,0.974018824,1.091488128,2.025490742,1.091488128,2.025490742,0,"Correct, no change",-0.934002614,-1.013300911,0.01
2,5,0,right,left,1.526519951,7,50,43,0.8,1.341,"[""'left'"", ""'right'"", ""'left'"", ""'right'"", ""'left'"", ""'right'"", ""'left'"", ""'right'""]","[0.4208210407941806 0.7776338342337112 1.3248916336997354 1.8215596764457587 2.30233456534188 2.9007323634632485 3.2759910912118357 3.632182082754298 4.0]",1,right,0.23188193,0.83,3.153,-0.634819501,-1.671229403,7,1.800888891,0.069140224,1,-7,-0.94523009,1.808069626,1.771109333,1.808069626,1.771109333,1,Incorrect to correct,0.036960292,-0.259451492,0.03
2,6,1,right,right,0.968469712,8,50,42,0.75,1.685,"[""'left'"", ""'right'"", ""'left'"", ""'right'"", ""'left'"", ""'right'""]","[0.561199447591207 1.1013106591835822 1.5085541238495352 2.0400025887029187 2.4786198221663653 3.0275591381778213 4.0]",1,right,0.217669723,1,1.186,-1.106103467,0.574691534,5,0.306375288,0.464227221,1,-8,-1.082319299,1.620498992,1.81830156,1.81830156,1.620498992,0,"Correct, no change",-0.197802567,-0.441719882,0.25
2,7,1,left,left,2.118893883,8,42,50,0.67,0.998,"[""'left'"", ""'right'"", ""'left'"", ""'right'"", ""'left'""]","[0.6854110050680902 1.1070676723466022 1.6497969521733467 2.067867923689846 2.4634952964297554 4.0]",1,left,1.306716829,1,2.309,-1.860157811,0.574691534,4,-0.440881513,0.464227221,1,8,1.111108032,2.376232342,0.938356653,2.376232342,0.938356653,0,"Correct, no change",1.43787569,0.828210303,0.33
2,8,1,left,left,1.250360366,7,50,57,1,1.436,"[""'left'"", ""'right'"", ""'left'"", ""'right'"", ""'left'"", ""'right'""]","[0.7339081318332319 1.0910285475765704 1.5476412582229386 2.017051798007742 2.8105670970144274 3.5593135147391877 4.0]",1,left,0.216984914,0.91,1.898,1.25031636,-0.614325433,5,0.306375288,0.069140224,1,7,0.974018824,1.575277373,1.690814495,1.575277373,1.690814495,0,"Correct, no change",-0.115537122,-0.377849514,-0.09
2,9,0,right,left,1.935527041,7,57,50,0.6,1.4,"[""'left'"", ""'right'"", ""'left'"", ""'right'"", ""'left'""]","[0.53433994345869 0.8898883208439656 1.4665113634928275 1.8747928752509324 2.437899353051762 4.0]",0,left,0.488584048,0.84,1.401,-2.519955363,-1.539116407,4,-0.440881513,0.069140224,1,-7,-0.94523009,2.325930536,1.13972952,2.325930536,1.13972952,0,"Incorrect, no change",1.186201016,0.632811688,0.24
2,10,1,right,right,4.509744414,8,50,42,0.66,1.016,"[""'left'"", ""'right'"", ""'left'"", ""'right'""]","[0.8046048122505454 1.2437423522078461 1.676683255653188 2.239268571662251 4.0]",1,right,0.175360394,0.96,2.028,-1.954414605,0.046239549,3,-1.188138314,0.464227221,1,-8,-1.082319299,1.001722856,2.193672332,2.193672332,1.001722856,0,"Correct, no change",-1.191949476,-1.213569212,0.3
2,11,0,right,left,2.105994558,8,58,50,0.73,1.378,"[""'left'"", ""'right'"", ""'left'"", ""'right'"", ""'left'"", ""'right'"", ""'left'"", ""'right'""]","[0.7294622910358157 1.1205349149877293 1.5583299216432351 2.055505441407149 2.462138223054353 3.037200916423899 3.3682130650813633 3.863384335723822 4.0]",0,left,1.730173614,0.76,1.966,-1.294617053,-2.596020377,7,1.800888891,0.464227221,1,-8,-1.082319299,1.958482108,1.312055601,1.958482108,1.312055601,0,"Incorrect, no change",0.646426506,0.213734196,0.03
2,12,1,right,right,1.232639439,9,59,50,0.82,1.077,"[""'left'"", ""'right'"", ""'left'"", ""'right'"", ""'left'"", ""'right'""]","[0.6524019058342674 1.0678873104516242 1.552210832183846 2.0506601762826904 2.5232689616805146 3.036280900503698 4.0]",1,right,0.294985842,0.92,1.31,-0.446305915,-0.482212437,5,0.306375288,0.859314217,1,-9,-1.219408507,1.426946688,1.920651407,1.920651407,1.426946688,0,"Correct, no change",-0.493704719,-0.671456429,0.1
2,13,1,right,right,0.844795281,9,59,50,1,1.239,"[""'right'"", ""'left'"", ""'right'"", ""'left'"", ""'right'""]","[0.8053397986295749 1.2555990680666582 1.7460000547398522 2.2861583077410614 2.695289415854859 4.0]",1,right,0.206029967,1,1.202,1.25031636,0.574691534,4,-0.440881513,0.859314217,1,-9,-1.219408507,0.899532095,2.295128107,2.295128107,0.899532095,0,"Correct, no change",-1.395596012,-1.371679086,0
2,14,1,right,right,0.919652133,8,58,50,0.87,1.826,"[""'left'"", ""'right'"", ""'left'"", ""'right'"", ""'left'"", ""'right'""]","[0.3718363939697156 0.9500582743276027 1.4793302899906848 2.259412843388418 2.621890847965915 2.913706384060788 4.0]",1,right,0.424056064,1,1.954,0.02497805,0.574691534,5,0.306375288,0.464227221,1,-8,-1.082319299,1.65011997,1.978043636,1.978043636,1.65011997,0,"Correct, no change",-0.327923666,-0.542745075,0.13
2,15,0,left,right,2.185021559,8,50,58,0.64,1.062,"[""'left'"", ""'right'"", ""'left'"", ""'right'"", ""'left'"", ""'right'""]","[0.5881310818840575 1.0302211117286788 1.6312694794196432 2.0896406834635854 2.573365496351471 3.182522092356521 4.0]",0,right,0.091711931,0.88,1.86,-2.142928191,-1.010664422,5,0.306375288,0.464227221,1,8,1.111108032,1.50961783,1.902251088,1.902251088,1.50961783,0,"Incorrect, no change",-0.392633258,-0.59298519,0.24
2,16,0,left,right,2.264055973,9,41,50,0.71,2.207,"[""'left'"", ""'right'"", ""'left'"", ""'right'"", ""'left'""]","[0.34025934926648915 0.7574946942986571 1.380340340318071 1.8212013064403436 2.492822336287645 4.0]",1,left,0.157856999,1,1.294,-1.483130639,0.574691534,4,-0.440881513,0.859314217,1,9,1.248197241,2.365273975,1.294466676,1.294466676,2.365273975,1,Incorrect to correct,1.070807299,0.543220741,0.29
2,17,1,right,right,0.805537658,10,50,40,1,1.17,"[""'left'"", ""'right'"", ""'left'"", ""'right'""]","[0.492545504723239 0.8673318226865376 1.2587280345142062 1.7274184130910726 4.0]",1,right,0.759435366,1,1.251,1.25031636,0.574691534,3,-1.188138314,1.254401213,1,-10,-1.356497715,0.843476697,2.663977799,2.663977799,0.843476697,0,"Correct, no change",-1.820501102,-1.701572693,0
2,18,1,right,right,0.837716262,10,50,40,0.8,1.248,"[""'left'"", ""'right'"", ""'left'"", ""'right'""]","[0.4038510663303896 0.959226502389356 1.4631962271087104 1.8187386174049607 4.0]",1,right,1.382034401,1,1.639,-0.634819501,0.574691534,3,-1.188138314,1.254401213,1,-10,-1.356497715,0.910917826,2.685231107,2.685231107,0.910917826,0,"Correct, no change",-1.774313281,-1.665712763,0.2
2,19,0,left,right,0.808762703,9,50,59,0.76,2.2,"[""'left'"", ""'right'"", ""'left'"", ""'right'"", ""'left'"", ""'right'"", ""'left'""]","[0.31307112546892313 0.7961561751963018 1.3124558808594884 1.858064094916699 2.4306752181291813 2.9613633227527316 3.664904657041916 4.0]",1,left,0.348209347,0.9,1.988,-1.011846674,-0.746438429,6,1.05363209,0.859314217,1,9,1.248197241,1.894476711,1.792452163,1.792452163,1.894476711,1,Incorrect to correct,0.102024548,-0.208936018,0.14
2,20,0,left,right,3.360523648,10,50,60,0.63,1.998,"[""'left'"", ""'right'"", ""'left'"", ""'right'"", ""'left'"", ""'right'"", ""'left'""]","[0.4030610557565524 0.9454308251806651 1.4209270977898996 1.8875804408089607 2.4611070183491393 3.0423158856265218 3.472343642908527 4.0]",0,right,0.116728837,0.86,1.251,-2.237184984,-1.274890414,6,1.05363209,1.254401213,1,10,1.385286449,2.117888337,1.479050607,1.479050607,2.117888337,0,"Incorrect, no change",0.638837729,0.207842318,0.23
2,21,1,left,left,0.716799599,11,50,61,0.8,1.129,"[""'left'"", ""'right'"", ""'left'"", ""'right'"", ""'left'""]","[0.5284988259609236 0.927881528636135 1.5695873584627407 2.103399297742726 2.674390770989703 4.0]",1,left,0.034079648,0.82,1.617,-0.634819501,-1.8033424,4,-0.440881513,1.64948821,1,11,1.522375657,2.258803871,1.212697303,2.258803871,1.212697303,0,"Correct, no change",1.046106568,0.524043251,0.02
2,22,1,right,right,0.727154981,11,61,50,0.89,2.168,"[""'left'"", ""'right'"", ""'left'"", ""'right'"", ""'left'"", ""'right'""]","[0.6507936598445667 1.0465268044790719 1.4770044486904226 1.967616694055323 2.3230687078266783 2.5882801888947142 4.0]",1,right,0.651631282,1,1.194,0.213491636,0.574691534,5,0.306375288,1.64948821,1,-11,-1.493586923,1.151556871,2.197649469,2.197649469,1.151556871,0,"Correct, no change",-1.046092598,-1.100326861,0.11
2,23,1,right,right,0.528934458,10,60,50,1,1.121,"[""'left'"", ""'right'"", ""'left'"", ""'right'""]","[0.5190526259357284 0.8913044098044338 1.265698430926932 1.8995951017623156 4.0]",1,right,0.735113817,1,1.224,1.25031636,0.574691534,3,-1.188138314,1.254401213,1,-10,-1.356497715,1.006148455,2.474798919,2.474798919,1.006148455,0,"Correct, no change",-1.468650465,-1.428398098,0
2,24,1,right,right,1.242738232,10,60,50,0.71,1.032,"[""'left'"", ""'right'"", ""'left'"", ""'right'"", ""'left'"", ""'right'""]","[0.38692271638137754 0.8078843112052709 1.371268475870238 1.9448090232835966 2.3632095697612385 2.848573134280741 4.0]",1,right,0.139504007,1,1.254,-1.483130639,0.574691534,5,0.306375288,1.254401213,1,-10,-1.356497715,1.479865707,2.133211577,2.133211577,1.479865707,0,"Correct, no change",-0.65334587,-0.795400802,0.29
2,25,1,left,left,2.414976502,9,41,50,0.67,1.638,"[""'left'"", ""'right'"", ""'left'"", ""'right'"", ""'left'""]","[0.488806140358065 0.9228078988526249 1.420249701501234 1.842481984565893 2.1569036261244037 4.0]",1,left,0.433066632,1,1.295,-1.860157811,0.574691534,4,-0.440881513,0.859314217,1,9,1.248197241,2.699330415,0.811863444,2.699330415,0.811863444,0,"Correct, no change",1.887466971,1.177270111,0.33
2,26,1,left,left,1.764399233,9,41,50,0.7,1.528,"[""'left'"", ""'right'"", ""'left'"", ""'right'"", ""'left'""]","[0.6003877922685206 0.9499958375472488 1.3810077581256337 1.8067595938809973 2.1630985520368995 4.0]",1,left,1.047810892,0.83,1.876,-1.577387432,-1.671229403,4,-0.440881513,0.859314217,2,9,1.248197241,2.612261329,0.787350879,2.612261329,0.787350879,0,"Correct, no change",1.82491045,1.128701627,0.13
2,27,0,left,right,0.7933029,8,50,58,0.79,1.636,"[""'left'"", ""'right'"", ""'left'"", ""'right'"", ""'left'"", ""'right'"", ""'left'"", ""'right'""]","[0.4079348308277986 0.821871575242767 1.219392293420242 1.7320775082771434 2.1206398315862316 2.6170604080125486 3.0431204362721473 3.692320675298106 4.0]",1,left,0.122920912,0.78,1.374,-0.729076294,-2.331794385,7,1.800888891,0.464227221,2,8,1.111108032,2.072242775,1.519822394,1.519822394,2.072242775,1,Incorrect to correct,0.55242038,0.140748438,-0.01
2,28,1,right,right,0.561356252,9,59,50,1,1.278,"[""'left'"", ""'right'"", ""'left'"", ""'right'""]","[0.8300051774058375 1.2029506082308217 1.5112731172885105 1.867523694614647 4.0]",1,right,0.391855507,1,2.031,1.25031636,0.574691534,3,-1.188138314,0.859314217,2,-9,-1.219408507,0.729196008,2.440798814,2.440798814,0.729196008,0,"Correct, no change",-1.711602806,-1.61702475,0
2,29,0,left,right,0.908201969,9,50,59,0.9,3.113,"[""'left'"", ""'right'"", ""'left'"", ""'right'"", ""'left'"", ""'right'"", ""'left'""]","[0.34710316152450105 0.8129602217832144 1.2820069746721856 1.841514642135735 2.229784453411412 2.822546405635876 3.797365281956445 4.0]",0,right,0.039457479,0.94,1.157,0.307748429,-0.217986444,6,1.05363209,0.859314217,2,9,1.248197241,1.820761398,1.83213544,1.83213544,1.820761398,0,"Incorrect, no change",-0.011374043,-0.296977962,0.04
2,30,0,left,right,2.327247981,10,50,60,0.81,1.933,"[""'left'"", ""'right'"", ""'left'"", ""'right'"", ""'left'"", ""'right'"", ""'left'"", ""'right'"", ""'left'""]","[0.37420243429369293 0.8066954465066374 1.2108547053394432 1.8540273718281242 2.276271914170138 2.558978237790143 2.866193135490903 3.3799791193177953 3.680725395633999 4.0]",1,left,0.033742945,0.88,2.167,-0.540562708,-1.010664422,8,2.548145692,1.254401213,2,10,1.385286449,2.191432591,1.434364975,1.434364975,2.191432591,1,Incorrect to correct,0.757067615,0.299635248,0.07
2,31,1,right,right,0.700130404,11,50,39,1,1.061,"[""'left'"", ""'right'"", ""'left'"", ""'right'"", ""'left'"", ""'right'""]","[0.6343679402234557 0.9909937084248668 1.3342494528933457 1.7096766744161869 2.0252675088122487 2.331969797704005 4.0]",1,right,0.258602021,1,1.325,1.25031636,0.574691534,5,0.306375288,1.64948821,2,-11,-1.493586923,1.038755279,2.326876781,2.326876781,1.038755279,0,"Correct, no change",-1.288121503,-1.288236562,0
2,32,1,left,left,0.705112232,11,39,50,0.78,1.312,"[""'left'"", ""'right'"", ""'left'"", ""'right'"", ""'left'""]","[0.6510103354248713 0.9806865080663556 1.5150005074756336 1.9156433497118996 2.3974577111985127 4.0]",1,left,0.214897416,1,1.301,-0.823333088,0.574691534,4,-0.440881513,1.64948821,2,11,1.522375657,2.332861304,1.016128361,2.332861304,1.016128361,0,"Correct, no change",1.316732943,0.734155845,0.22
2,33,1,left,left,0.860560711,10,40,50,0.64,4.584,"[""'left'"", ""'right'"", ""'left'"", ""'right'"", ""'left'""]","[0.3423134907916392 0.8425652336045459 1.361018865600272 1.8721263401093893 2.4781143408436037 4.0]",1,left,0.724652093,1,1.515,-2.142928191,0.574691534,4,-0.440881513,1.254401213,2,10,1.385286449,2.533244876,1.124441633,2.533244876,1.124441633,0,"Correct, no change",1.408803244,0.805638641,0.36
2,34,1,left,left,0.858105149,10,40,50,0.72,1.032,"[""'left'"", ""'right'"", ""'left'"", ""'right'"", ""'left'""]","[0.499396444467493 0.9475240253304946 1.447738420114547 1.9147045172285289 2.5057669916423038 4.0]",1,left,0.924921056,0.92,1.27,-1.388873846,-0.482212437,4,-0.440881513,1.254401213,2,10,1.385286449,2.409326686,1.091276869,2.409326686,1.091276869,0,"Correct, no change",1.318049817,0.735178258,0.2
2,35,1,left,left,1.823482957,9,50,59,0.8,1.748,"[""'left'"", ""'right'"", ""'left'"", ""'right'"", ""'left'""]","[0.6511788291991252 1.2007008884829702 1.7321827099731308 2.2136463991373603 2.5873521901903587 4.0]",1,left,0.139250268,0.99,1.867,-0.634819501,0.442578538,4,-0.440881513,0.859314217,2,9,1.248197241,2.443633558,0.905187613,2.443633558,0.905187613,0,"Correct, no change",1.538445946,0.906292409,0.19
2,36,1,left,left,0.826981698,9,41,50,1,1.37,"[""'left'"", ""'right'"", ""'left'"", ""'right'"", ""'left'""]","[0.6665801865001413 1.0426976337894303 1.5257972235867783 1.9145879115549178 2.570391624007243 4.0]",1,left,0.175492395,1,1.68,1.25031636,0.574691534,4,-0.440881513,0.859314217,2,9,1.248197241,2.194516511,1.138903302,2.194516511,1.138903302,0,"Correct, no change",1.055613209,0.531424147,0
2,37,1,left,left,0.827679621,8,42,50,0.94,2.932,"[""'left'"", ""'right'"", ""'left'"", ""'right'"", ""'left'""]","[0.5922670195814135 1.0378261395144364 1.4805234311843378 1.870496141464173 2.2104809399625083 4.0]",1,left,0.447811691,1,1.478,0.684775602,0.574691534,4,-0.440881513,0.464227221,2,8,1.111108032,2.62505089,0.78268209,2.62505089,0.78268209,0,"Correct, no change",1.8423688,1.142256179,0.06
2,38,0,right,left,1.417977174,8,58,50,0.76,1.685,"[""'left'"", ""'right'"", ""'left'"", ""'right'"", ""'left'"", ""'right'""]","[0.5008091122344922 0.9458616104475368 1.4193439405535173 1.9955031263998535 2.366000408263062 2.7268707370512857 4.0]",1,right,1.141915378,1,2.223,-1.011846674,0.574691534,5,0.306375288,0.464227221,2,-8,-1.082319299,1.382082013,2.117108875,1.382082013,2.117108875,1,Incorrect to correct,-0.735026862,-0.858817404,0.24
2,39,1,left,left,1.602198744,9,41,50,0.62,2.524,"[""'left'"", ""'right'"", ""'left'"", ""'right'"", ""'left'""]","[0.590220860840418 0.9641367701879062 1.4026955582630762 1.9178360495698143 2.5418406248463725 4.0]",1,left,0.354106915,1,1.934,-2.331441777,0.574691534,4,-0.440881513,0.859314217,2,9,1.248197241,2.347215776,1.062563363,2.347215776,1.062563363,0,"Correct, no change",1.284652412,0.709248726,0.38
2,40,1,left,left,0.65222885,9,41,50,0.82,1.28,"[""'left'"", ""'right'"", ""'left'"", ""'right'"", ""'left'""]","[0.40630320668424247 0.7817828865063348 1.2675219269985973 1.7153304815783486 2.106098334221315 4.0]",1,left,2.740868835,1,1.542,-0.446305915,0.574691534,4,-0.440881513,0.859314217,2,9,1.248197241,2.7171899,0.876506893,2.7171899,0.876506893,0,"Correct, no change",1.840683007,1.14094734,0.18
2,41,1,right,right,0.935423264,8,50,42,0.74,1.201,"[""'left'"", ""'right'"", ""'left'"", ""'right'""]","[0.38915818115674483 0.9292243470372341 1.4027209321156988 1.7612622835094953 4.0]",1,right,0.955166971,1,1.652,-1.20036026,0.574691534,3,-1.188138314,0.464227221,2,-8,-1.082319299,0.898607517,2.712234302,2.712234302,0.898607517,0,"Correct, no change",-1.813626784,-1.696235517,0.26
2,42,0,right,left,1.281525157,8,50,42,0.75,1.295,"[""'left'"", ""'right'"", ""'left'"", ""'right'"", ""'left'"", ""'right'""]","[0.4363218978051009 0.7940686770361935 1.2947289673593332 1.8984133645499242 2.429886918154807 3.162092150983881 4.0]",1,right,0.124305355,1,1.156,-1.106103467,0.574691534,5,0.306375288,0.464227221,2,-8,-1.082319299,1.693636409,1.870041693,1.693636409,1.870041693,1,Incorrect to correct,-0.176405284,-0.425107167,0.25
2,43,0,right,left,0.939345663,9,59,50,0.8,1.671,"[""'left'"", ""'right'"", ""'left'"", ""'right'"", ""'left'"", ""'right'"", ""'left'""]","[0.3553639180408936 0.8866655566780537 1.6005371843803005 2.118250698207703 2.52078232428903 2.8532798410742544 3.6020866998824204 4.0]",0,left,0.986433258,0.8,2.362,-0.634819501,-2.067568392,6,1.05363209,0.859314217,2,-9,-1.219408507,1.779425969,1.865210113,1.779425969,1.865210113,0,"Incorrect, no change",-0.085784143,-0.354749491,0
2,44,1,right,right,1.214874893,10,50,40,0.75,2.106,"[""'left'"", ""'right'"", ""'left'"", ""'right'"", ""'left'"", ""'right'"", ""'left'"", ""'right'""]","[0.45132611157532665 0.8978745265922043 1.2946337441426294 1.6810216139601835 2.0600140040860424 2.506030138432834 2.914833382181314 3.252803382876664 4.0]",1,right,0.670107722,0.99,2.855,-1.106103467,0.442578538,7,1.800888891,1.254401213,2,-10,-1.356497715,1.61692242,1.931751469,1.931751469,1.61692242,0,"Correct, no change",-0.314829049,-0.532578497,0.24
2,45,1,left,left,0.668336399,10,50,60,1,1.388,"[""'left'"", ""'right'"", ""'left'"", ""'right'"", ""'left'"", ""'right'"", ""'left'""]","[0.44815038881824876 0.7961188271692663 1.3250113754675112