participant,Trial,Block,RT1,RT2,Conf1,Conf2,Correct1,Correct2,Conf1_RT,Conf2_RT,DotNumberLeft,DotNumberRight,DotDifference,Switch,Left_Presentation_Time,Right_Presentation_Time,LeftTime,RightTime,NonAbsDiff,Response1,Response2,ZConf1,ZConf2,Zdifficult,ZNonAbsDiff,SamplingLength,Session,Type,ZSwitch,DeltaSampling,ZDeltaSampling,ChosenTime,UnchosenTime,Chosen_Presentation_Time,Unchosen_Presentation_Time,ConfChange,Left_IA_First_Dwell_Time,Right_IA_First_Dwell_Time,LeftTime_First,RightTime_First,Internal_Saccades
1,22,0,2.568,2.066,0.4342,0.4087,0,1,1.098,2.337,50,51,1,8,,,2.36,3.029,-1,left,right,-0.312941143,-0.606817605,-1.381358503,-0.305711318,7,Free,Incorrect to correct,3.152040089,-0.669,-0.681905143,2.36,3.029,,,-0.0255,788,743,0.788,0.743,14
1,24,0,2.057,2.527,0.527,0.4903,1,0,0.948,0.236,48,50,2,4,,,2.196,3.336,-2,right,left,0.586114925,0.047931008,-0.641764291,-0.56774959,7,Free,Correct to incorrect,0.722944974,-1.14,-1.239766004,3.336,2.196,,,-0.0367,848,698,0.848,0.698,19
1,26,0,1.327,2.774,0.3357,0.3433,0,1,1.403,2.668,50,48,2,4,,,3.297,2.44,2,right,left,-1.267219404,-1.131579361,-0.641764291,0.480403499,7,Free,Incorrect to correct,0.722944974,0.857,1.125516671,2.44,3.297,,,0.0076,632,904,0.632,0.904,18
1,27,0,4.659,5.497,0.3917,0.3725,1,1,1.342,1.308,47,50,3,2,,,2.174,1.89,-3,right,right,-0.72468557,-0.897282063,0.097829922,-0.829787862,5,Free,"Correct, no change",-0.491602583,0.284,0.446845177,1.89,2.174,,,-0.0192,756,824,0.756,0.824,12
1,28,0,3.863,2.128,0.4678,0.4025,1,0,1.107,2.293,47,50,3,3,,,2.09,1.793,-3,right,left,0.012579157,-0.656565661,0.097829922,-0.829787862,5,Free,Correct to incorrect,0.115671196,0.297,0.462242611,1.793,2.09,,,-0.0653,628,932,0.628,0.932,13
1,29,0,2.229,3.218,0.3998,0.5047,0,0,1.615,0.295,48,50,2,3,,,2.15,1.592,-2,left,left,-0.646211927,0.163474881,-0.641764291,-0.56774959,5,Free,"Incorrect, no change",0.115671196,0.558,0.7713757,2.15,1.592,,,0.1049,850,660,0.85,0.66,12
1,31,0,3.739,2.425,0.382,0.3368,1,1,1.716,1.073,47,50,3,5,,,3.086,2.478,-3,right,right,-0.818660181,-1.183734582,0.097829922,-0.829787862,7,Free,"Correct, no change",1.330218753,0.608,0.830596598,2.478,3.086,,,-0.0452,734,674,0.734,0.674,16
1,33,0,4.353,13.762,0.2915,0.4632,1,1,0.358,0.116,47,50,3,3,,,1.58,2.076,-3,right,right,-1.695433609,-0.169516141,0.097829922,-0.829787862,5,Free,"Correct, no change",0.115671196,-0.496,-0.477000835,2.076,1.58,,,0.1717,586,990,0.586,0.99,12
1,34,0,3.072,2.645,0.4658,0.3753,1,0,0.444,0.578,50,47,3,4,,,3.132,2.58,3,left,right,-0.006797051,-0.874815199,0.097829922,0.742441771,7,Free,Correct to incorrect,0.722944974,0.552,0.764269192,3.132,2.58,,,-0.0905,888,630,0.888,0.63,17
1,36,0,3.891,17.899,0.5258,0.6442,1,0,0.439,0.707,52,50,2,5,,,2.718,2.484,2,left,right,0.5744892,1.28280615,-0.641764291,0.480403499,7,Free,Correct to incorrect,1.330218753,0.234,0.387624279,2.718,2.484,,,0.1184,776,698,0.776,0.698,15
1,37,0,3.232,8.829,0.6678,0.6128,1,1,2.212,1.069,50,49,1,4,,,2.287,1.66,1,left,left,1.950199993,1.030856316,-1.381358503,0.218365227,5,Free,"Correct, no change",0.722944974,0.627,0.853100539,2.287,1.66,,,-0.055,852,725,0.852,0.725,11
1,39,0,5.262,2.784,0.467,0.484,0,1,2.561,0.73,52,50,2,4,,,1.854,2.018,2,right,left,0.004828674,-0.002619436,-0.641764291,0.480403499,5,Free,Incorrect to correct,0.722944974,-0.164,-0.083774071,2.018,1.854,,,0.017,874,764,0.874,0.764,11
1,40,0,3.704,2.169,0.4758,0.6072,1,1,1.056,2.037,53,50,3,2,,,3.552,1.589,3,left,left,0.090083991,0.985922588,0.097829922,0.742441771,7,Free,"Correct, no change",-0.491602583,1.963,2.43548294,3.552,1.589,,,0.1314,900,766,0.9,0.766,12
1,42,1,4.509,1.982,0.3588,0.3805,0,1,4.958,3.656,50,52,2,4,,,2.122,2.327,-2,left,right,-1.043424198,-0.833091023,-0.641764291,-0.56774959,5,Free,Incorrect to correct,0.722944974,-0.205,-0.132335207,2.122,2.327,,,0.0217,596,842,0.596,0.842,12
1,43,1,1.268,1.439,0.6465,0.6632,1,1,1.22,2.644,50,47,3,3,,,2.866,1.472,3,left,left,1.743843374,1.435259872,0.097829922,0.742441771,7,Free,"Correct, no change",0.115671196,1.394,1.761549118,2.866,1.472,,,0.0167,932,730,0.932,0.73,10
1,44,1,2.84,3.073,0.2888,0.3177,1,1,2.951,1.177,50,53,3,4,,,1.833,2.15,-3,right,right,-1.72159149,-1.336990691,0.097829922,-0.829787862,5,Free,"Correct, no change",0.722944974,-0.317,-0.264990019,2.15,1.833,,,0.0289,812,710,0.812,0.71,9
1,46,1,6.142,1.885,0.4963,0.489,1,0,2.52,0.413,50,53,3,7,,,3.07,2.455,-3,right,left,0.288690127,0.037499964,0.097829922,-0.829787862,7,Free,Correct to incorrect,2.54476631,0.615,0.838887524,2.455,3.07,,,-0.0073,785,818,0.785,0.818,14
1,47,1,1.495,2.861,0.561,0.6585,1,1,1.3,1.182,53,50,3,6,,,2.482,2.752,3,left,left,0.915510467,1.397547635,0.097829922,0.742441771,7,Free,"Correct, no change",1.937492532,-0.27,-0.209322375,2.482,2.752,,,0.0975,938,733,0.938,0.733,17
1,50,1,2.091,3.409,0.3873,0.3782,1,0,1.927,1.283,49,50,1,4,,,2.389,2.064,-1,right,left,-0.767313229,-0.851545947,-1.381358503,-0.305711318,5,Free,Correct to incorrect,0.722944974,0.325,0.495406314,2.064,2.389,,,-0.0091,592,994,0.592,0.994,12
1,51,1,1.524,8.855,0.397,0.456,1,0,1.696,0.6,51,50,1,3,,,1.748,2.212,1,left,right,-0.673338618,-0.227288078,-1.381358503,0.218365227,5,Free,Correct to incorrect,0.115671196,-0.464,-0.43909946,1.748,2.212,,,0.059,737,844,0.737,0.844,13
1,52,1,2.6,5.412,0.4117,0.5302,0,0,2.053,0.748,50,50,0,2,,,2.392,1.293,0,left,left,-0.530923487,0.368083823,-2.120952716,-0.043673045,5,Free,"Incorrect, no change",-0.491602583,1.099,1.412145819,2.392,1.293,,,0.1185,792,620,0.792,0.62,10
1,53,1,3.631,2.981,0.2807,0.2667,1,1,2.401,0.422,51,50,1,3,,,1.854,2.172,1,left,left,-1.800065134,-1.746208574,-1.381358503,0.218365227,5,Free,"Correct, no change",0.115671196,-0.318,-0.266174437,1.854,2.172,,,-0.014,806,846,0.806,0.846,12
1,54,1,3.26,7.285,0.409,0.3315,1,0,2.225,0.367,51,50,1,4,,,2.202,2.037,1,left,right,-0.557081368,-1.226261146,-1.381358503,0.218365227,5,Free,Correct to incorrect,0.722944974,0.165,0.30589944,2.202,2.037,,,-0.0775,740,875,0.74,0.875,11
1,56,1,0.946,3.798,0.3752,0.337,1,0,0.675,1.554,50,51,1,5,,,2.273,2.85,-1,right,left,-0.884539289,-1.182129806,-1.381358503,-0.305711318,7,Free,Correct to incorrect,1.330218753,-0.577,-0.57293869,2.85,2.273,,,-0.0382,1056,733,1.056,0.733,16
1,57,1,2.794,3.373,0.3723,0.4342,0,1,0.657,0.394,50,49,1,5,,,2.169,3.276,1,right,left,-0.912634791,-0.402208663,-1.381358503,0.218365227,7,Free,Incorrect to correct,1.330218753,-1.107,-1.200680211,3.276,2.169,,,0.0619,586,968,0.586,0.968,14
1,59,1,1.975,1.671,0.48,0.4295,0,0,1.628,2.438,50,52,2,6,,,2.782,2.84,-2,left,left,0.130774028,-0.4399209,-0.641764291,-0.56774959,7,Free,"Incorrect, no change",1.937492532,-0.058,0.041774234,2.782,2.84,,,-0.0505,726,808,0.726,0.808,17
1,60,1,2.383,4.271,0.4633,0.4405,1,0,0.315,0.319,50,47,3,6,,,2.634,3.056,3,left,right,-0.031017311,-0.351658219,0.097829922,0.742441771,7,Free,Correct to incorrect,1.937492532,-0.422,-0.389353905,2.634,3.056,,,-0.0228,576,1004,0.576,1.004,20
1,62,1,2.937,2.794,0.4618,0.5703,1,1,0.543,0.867,50,46,4,4,,,2.148,1.472,4,left,left,-0.045549468,0.689841414,0.837424135,1.004480043,5,Free,"Correct, no change",0.722944974,0.676,0.91113702,2.148,1.472,,,0.1085,798,713,0.798,0.713,8
1,65,2,4.762,15.457,0.4868,0.4722,1,1,2.948,0.098,50,53,3,4,,,1.626,2.746,-3,right,right,0.196653137,-0.097301221,0.097829922,-0.829787862,7,Free,"Correct, no change",0.722944974,-1.12,-1.216077645,2.746,1.626,,,-0.0146,878,658,0.878,0.658,11
1,66,2,3.486,4.223,0.469,0.4712,1,1,1.15,0.902,50,52,2,2,,,1.256,2.644,-2,right,right,0.024204883,-0.105325101,-0.641764291,-0.56774959,5,Free,"Correct, no change",-0.491602583,-1.388,-1.533501659,2.644,1.256,,,0.0022,773,834,0.773,0.834,12
1,68,2,1.273,1.673,0.4685,0.4847,1,1,0.647,2.469,51,50,1,4,,,3.178,2.699,1,left,left,0.01936083,0.00299728,-1.381358503,0.218365227,7,Free,"Correct, no change",0.722944974,0.479,0.677806681,3.178,2.699,,,0.0162,934,645,0.934,0.645,15
1,71,2,1.546,9.155,0.544,0.459,1,0,0.644,0.076,50,48,2,2,,,2.794,1.414,2,left,right,0.750812696,-0.203216438,-0.641764291,0.480403499,5,Free,Correct to incorrect,-0.491602583,1.38,1.744967267,2.794,1.414,,,-0.085,646,788,0.646,0.788,14
1,72,2,1.46,2.314,0.5338,0.552,1,1,1.958,0.469,51,50,1,4,,,2.884,3.018,1,left,left,0.651994033,0.543004408,-1.381358503,0.218365227,7,Free,"Correct, no change",0.722944974,-0.134,-0.048241532,2.884,3.018,,,0.0182,824,759,0.824,0.759,16
1,73,2,1.605,2.317,0.5893,0.5487,1,1,0.781,0.601,50,49,1,4,,,2.124,1.726,1,left,left,1.189683815,0.516525604,-1.381358503,0.218365227,5,Free,"Correct, no change",0.722944974,0.398,0.581868825,2.124,1.726,,,-0.0406,882,727,0.882,0.727,11
1,75,2,4.437,41.699,0.3582,0.4875,1,0,2.208,0.091,51,50,1,4,,,2.648,3.208,1,left,right,-1.04923706,0.025464144,-1.381358503,0.218365227,7,Free,Correct to incorrect,0.722944974,-0.56,-0.552803585,2.648,3.208,,,0.1293,985,730,0.985,0.73,19
1,76,2,4.096,3.913,0.3623,0.4332,1,1,1.235,1.941,49,50,1,4,,,1.966,1.875,-1,right,right,-1.009515833,-0.410232543,-1.381358503,-0.305711318,5,Free,"Correct, no change",0.722944974,0.091,0.21825251,1.875,1.966,,,0.0709,535,948,0.535,0.948,11
1,77,2,3.946,2.213,0.452,0.4542,0,0,1.541,1.213,50,50,0,2,,,2.568,3.112,0,left,right,-0.140492889,-0.241731062,-2.120952716,-0.043673045,7,Free,"Incorrect, no change",-0.491602583,-0.544,-0.533852897,2.568,3.112,,,0.0022,948,701,0.948,0.701,15
1,78,2,2.498,3.758,0.4267,0.4952,1,0,1.709,2.062,51,50,1,6,,,3.333,2.262,1,left,right,-0.385601924,0.087248021,-1.381358503,0.218365227,7,Free,Correct to incorrect,1.937492532,1.071,1.378982116,3.333,2.262,,,0.0685,870,598,0.87,0.598,15
1,79,2,3.338,1.594,0.4218,0.4638,0,0,0.444,1.621,51,50,1,4,,,2.238,1.68,1,right,right,-0.433073635,-0.164701813,-1.381358503,0.218365227,5,Free,"Incorrect, no change",0.722944974,0.558,0.7713757,1.68,2.238,,,0.042,888,739,0.888,0.739,11
1,80,2,2.617,1.591,0.4152,0.3612,0,0,1.129,6.779,52,50,2,3,,,1.49,2.472,2,right,right,-0.497015122,-0.987951908,-0.641764291,0.480403499,5,Free,"Incorrect, no change",0.115671196,-0.982,-1.052627966,2.472,1.49,,,-0.054,816,726,0.816,0.726,11
1,83,2,1.673,2.95,0.4323,0.5138,1,1,0.469,0.468,52,50,2,3,,,1.55,1.758,2,left,left,-0.331348541,0.23649219,-0.641764291,0.480403499,5,Free,"Correct, no change",0.115671196,-0.208,-0.135888461,1.55,1.758,,,0.0815,926,644,0.926,0.644,7
1,84,3,2.17,3.257,0.4485,0.509,1,1,0.378,1.233,50,48,2,6,,,2.067,3.592,2,left,left,-0.174401253,0.197977566,-0.641764291,0.480403499,7,Free,"Correct, no change",1.937492532,-1.525,-1.69576692,2.067,3.592,,,0.0605,632,761,0.632,0.761,16
1,85,3,1.761,1.929,0.5375,0.6972,1,1,0.333,1.03,50,49,1,2,,,1.704,0.974,1,left,left,0.687840019,1.708071794,-1.381358503,0.218365227,5,Free,"Correct, no change",-0.491602583,0.73,0.97509559,1.704,0.974,,,0.1597,850,864,0.85,0.864,8
1,86,3,4.984,4.291,0.295,0.331,1,1,2.416,0.255,49,50,1,3,,,1.833,2.578,-1,right,right,-1.661525244,-1.230273086,-1.381358503,-0.305711318,5,Free,"Correct, no change",0.115671196,-0.745,-0.771920908,2.578,1.833,,,0.036,866,698,0.866,0.698,14
1,87,3,1.318,2.474,0.5542,0.6612,0,0,1.578,5.414,50,50,0,4,,,4.111,1.766,0,left,left,0.849631358,1.419212112,-2.120952716,-0.043673045,7,Free,"Incorrect, no change",0.722944974,2.345,2.887930602,4.111,1.766,,,0.107,1013,812,1.013,0.812,12
1,88,3,3.625,3.438,0.5995,0.3257,0,0,3.942,1.273,50,51,1,2,,,2.558,1.614,-1,left,left,1.288502478,-1.27279965,-1.381358503,-0.305711318,5,Free,"Incorrect, no change",-0.491602583,0.944,1.228561034,2.558,1.614,,,-0.2738,796,740,0.796,0.74,14
1,89,3,2.981,3.832,0.3847,0.4595,1,1,2.255,1.647,52,50,2,3,,,2.738,1.268,2,left,left,-0.7925023,-0.199204498,-0.641764291,0.480403499,5,Free,"Correct, no change",0.115671196,1.47,1.851564883,2.738,1.268,,,0.0748,882,644,0.882,0.644,14
1,90,3,3.292,2.739,0.4398,0.4417,0,1,1.768,1.668,50,48,2,3,,,2.463,1.68,2,right,left,-0.258687759,-0.342029563,-0.641764291,0.480403499,5,Free,Incorrect to correct,0.115671196,0.783,1.037869742,1.68,2.463,,,0.0019,906,755,0.906,0.755,12
1,92,3,3.835,2.48,0.3558,0.4125,0,1,1.704,2.004,50,53,3,2,,,1.444,3.149,-3,left,right,-1.07248851,-0.576326861,0.097829922,-0.829787862,5,Free,Incorrect to correct,-0.491602583,-1.705,-1.908962154,1.444,3.149,,,0.0567,898,748,0.898,0.748,13
1,94,3,2.922,3.68,0.5045,0.303,1,0,1.922,3.569,46,50,4,3,,,2.987,3.227,-4,right,left,0.368132581,-1.454941728,0.837424135,-1.091826134,7,Free,Correct to incorrect,0.115671196,-0.24,-0.173789836,3.227,2.987,,,-0.2015,954,738,0.954,0.738,22
1,95,3,2.701,2.349,0.4247,0.5022,0,1,0.32,1.831,53,50,3,4,,,2.536,3.05,3,right,left,-0.404978133,0.143415181,0.097829922,0.742441771,7,Free,Incorrect to correct,0.722944974,-0.514,-0.498320358,3.05,2.536,,,0.0775,870,608,0.87,0.608,16
1,96,3,3.797,13.523,0.431,0.367,0,1,2.526,0.532,46,50,4,4,,,3.689,2.54,-4,left,right,-0.343943076,-0.941413404,0.837424135,-1.091826134,7,Free,Incorrect to correct,0.722944974,1.149,1.471366717,3.689,2.54,,,-0.064,819,612,0.819,0.612,20
1,98,3,5.646,2.838,0.5747,0.6382,1,1,2.963,11.249,45,50,5,6,,,2.33,3.122,-5,right,right,1.048237494,1.23466287,1.577018348,-1.353864406,7,Free,"Correct, no change",1.937492532,-0.792,-0.827588552,3.122,2.33,,,0.0635,450,1170,0.45,1.17,16
1,101,3,4.596,14.474,0.5075,0.4193,1,1,15.704,1.373,45,50,5,6,,,2.22,3.865,-5,right,right,0.397196893,-0.521764476,1.577018348,-1.353864406,7,Free,"Correct, no change",1.937492532,-1.645,-1.837897076,3.865,2.22,,,-0.0882,552,838,0.552,0.838,15
1,102,3,2.965,4.036,0.4852,0.418,0,1,1.531,1.273,45,50,5,3,,,1.698,2.236,-5,left,right,0.18115217,-0.53219552,1.577018348,-1.353864406,5,Free,Incorrect to correct,0.115671196,-0.538,-0.526746389,1.698,2.236,,,-0.0672,870,704,0.87,0.704,12
1,103,3,3.296,5.249,0.4882,0.6732,1,1,1.529,7.421,44,50,6,3,,,1.006,3.896,-6,right,right,0.210216483,1.515498672,2.316612561,-1.615902679,7,Free,"Correct, no change",0.115671196,-2.89,-3.312497442,3.896,1.006,,,0.185,490,754,0.49,0.754,14
1,106,4,4.22,3.666,0.3862,0.6192,1,1,1.811,2.045,55,50,5,4,,,3.16,2.736,5,left,left,-0.777970143,1.082209149,1.577018348,1.266518316,7,Free,"Correct, no change",0.722944974,0.424,0.612663693,3.16,2.736,,,0.233,812,695,0.812,0.695,16
1,107,4,2.803,1.713,0.5448,0.6215,1,1,3.848,8.869,50,46,4,5,,,2.338,2.174,4,left,left,0.758563179,1.100664073,0.837424135,1.004480043,7,Free,"Correct, no change",1.330218753,0.164,0.304715022,2.338,2.174,,,0.0767,614,1074,0.614,1.074,10
1,108,4,1.635,2.675,0.6188,0.6833,1,1,0.916,0.533,50,46,4,3,,,1.386,2.518,4,left,left,1.475482888,1.596539861,0.837424135,1.004480043,5,Free,"Correct, no change",0.115671196,-1.132,-1.23029066,1.386,2.518,,,0.0645,648,706,0.648,0.706,12
1,110,4,3.941,1.267,0.3822,0.5685,0,1,1.013,1.595,50,47,3,3,,,2.708,0.986,3,right,left,-0.81672256,0.67539843,0.097829922,0.742441771,5,Free,Incorrect to correct,0.115671196,1.722,2.15003821,0.986,2.708,,,0.1863,820,834,0.82,0.834,9
1,114,4,2.489,5.339,0.5695,0.6767,1,1,9.592,1.494,54,50,4,4,,,2.024,2.018,4,left,left,0.997859352,1.543582253,0.837424135,1.004480043,7,Free,"Correct, no change",0.722944974,0.006,0.117576983,2.024,2.018,,,0.1072,636,1045,0.636,1.045,10
1,115,4,3.203,1.657,0.5802,0.6305,1,1,1.298,2.059,54,50,4,4,,,1.778,2.557,4,left,left,1.101522067,1.172878994,0.837424135,1.004480043,5,Free,"Correct, no change",0.722944974,-0.779,-0.812191119,1.778,2.557,,,0.0503,486,708,0.486,0.708,10
1,116,4,2.093,1.916,0.5367,0.4215,1,1,0.302,3.377,53,50,3,7,,,3.15,2.5,3,left,left,0.680089535,-0.50411194,0.097829922,0.742441771,7,Free,"Correct, no change",2.54476631,0.65,0.880342153,3.15,2.5,,,-0.1152,956,752,0.956,0.752,15
1,117,4,5.058,1.007,0.3125,0.5917,0,1,2.619,2.681,53,50,3,3,,,2.37,1.61,3,right,left,-1.491983421,0.861552447,0.097829922,0.742441771,5,Free,Incorrect to correct,0.115671196,0.76,1.010628129,1.61,2.37,,,0.2792,666,970,0.666,0.97,11
1,119,4,3.373,1.332,0.5955,0.5888,1,1,1.434,1.511,50,54,4,4,,,1.794,2.236,-4,right,right,1.249750061,0.838283195,0.837424135,-1.091826134,5,Free,"Correct, no change",0.722944974,-0.442,-0.413042265,2.236,1.794,,,-0.0067,652,954,0.652,0.954,11
1,121,4,3.801,1.391,0.4873,0.6348,0,1,0.666,1.287,50,47,3,4,,,1.995,2.068,3,right,left,0.201497189,1.207381678,0.097829922,0.742441771,5,Free,Incorrect to correct,0.722944974,-0.073,0.024007964,2.068,1.995,,,0.1475,840,788,0.84,0.788,10
1,122,4,2.457,1.405,0.4613,0.4577,1,1,1.324,1.927,46,50,4,4,,,1.43,2.553,-4,right,right,-0.05039352,-0.213647482,0.837424135,-1.091826134,5,Free,"Correct, no change",0.722944974,-1.123,-1.219630899,2.553,1.43,,,-0.0036,874,596,0.874,0.596,10
1,123,4,1.696,2.034,0.5252,0.6152,1,1,0.377,1.166,46,50,4,5,,,2.739,3.292,-4,right,right,0.568676337,1.050113629,0.837424135,-1.091826134,7,Free,"Correct, no change",1.330218753,-0.553,-0.544512659,3.292,2.739,,,0.09,830,666,0.83,0.666,19
1,124,4,1.823,2.006,0.4645,0.3365,1,0,1.767,0.718,50,47,3,5,,,2.93,3.268,3,left,right,-0.019391586,-1.186141746,0.097829922,0.742441771,7,Free,Correct to incorrect,1.330218753,-0.338,-0.289862796,2.93,3.268,,,-0.128,860,748,0.86,0.748,16
1,125,4,2.365,2.209,0.2455,0.5518,1,1,0.891,6.2,50,53,3,4,,,2.602,3.133,-3,right,right,-2.141086401,0.541399632,0.097829922,-0.829787862,7,Free,"Correct, no change",0.722944974,-0.531,-0.518455464,3.133,2.602,,,0.3063,870,805,0.87,0.805,20
1,128,5,3.833,2.705,0.4702,0.3612,0,1,2.281,0.843,50,53,3,4,,,2.422,1.724,-3,left,right,0.035830608,-0.987951908,0.097829922,-0.829787862,5,Free,Incorrect to correct,0.722944974,0.698,0.937194215,2.422,1.724,,,-0.109,720,884,0.72,0.884,8
1,129,5,1.661,2.054,0.5968,0.4252,1,1,0.747,0.75,54,50,4,4,,,2.027,1.756,4,left,left,1.262344596,-0.474423584,0.837424135,1.004480043,5,Free,"Correct, no change",0.722944974,0.271,0.431447744,2.027,1.756,,,-0.1716,768,863,0.768,0.863,10
1,132,5,1.418,4.536,0.6363,0.71,1,1,1.488,0.783,47,50,3,3,,,1.862,1.794,-3,right,right,1.645024711,1.810777459,0.097829922,-0.829787862,5,Free,"Correct, no change",0.115671196,0.068,0.191010897,1.794,1.862,,,0.0737,808,554,0.808,0.554,9
1,135,5,3.783,2.131,0.523,0.4743,1,1,0.875,1.081,47,50,3,6,,,2.582,3.162,-3,right,right,0.547362508,-0.080451073,0.097829922,-0.829787862,7,Free,"Correct, no change",1.937492532,-0.58,-0.576491944,3.162,2.582,,,-0.0487,766,652,0.766,0.652,12
1,137,5,7.583,0.983,0.4403,0.6042,0,1,0.396,0.883,52,50,2,3,,,1.908,1.204,2,right,left,-0.253843707,0.961850948,-0.641764291,0.480403499,7,Free,Incorrect to correct,0.115671196,0.704,0.944300723,1.204,1.908,,,0.1639,711,892,0.711,0.892,8
1,138,5,1.554,2.467,0.5323,0.5363,1,1,1.543,1.966,53,50,3,5,,,2.19,3.785,3,left,left,0.637461877,0.417029491,0.097829922,0.742441771,7,Free,"Correct, no change",1.330218753,-1.595,-1.778676178,2.19,3.785,,,0.004,771,834,0.771,0.834,19
1,139,5,1.866,1.894,0.6222,0.4998,1,1,1.998,1.442,47,50,3,4,,,2.672,2.984,-3,right,right,1.508422443,0.124157869,0.097829922,-0.829787862,7,Free,"Correct, no change",0.722944974,-0.312,-0.259067929,2.984,2.672,,,-0.1224,948,571,0.948,0.571,21
1,140,5,2.249,1.739,0.505,0.3848,0,1,1.266,1.752,50,52,2,4,,,1.648,2.308,-2,left,right,0.372976633,-0.798588338,-0.641764291,-0.56774959,5,Free,Incorrect to correct,0.722944974,-0.66,-0.671245381,1.648,2.308,,,-0.1202,668,1016,0.668,1.016,13
1,141,5,1.644,4.622,0.4477,0.5412,0,1,1.887,0.566,47,50,3,4,,,1.694,2.568,-3,left,right,-0.182151736,0.456346504,0.097829922,-0.829787862,5,Free,Incorrect to correct,0.722944974,-0.874,-0.924710825,1.694,2.568,,,0.0935,820,674,0.82,0.674,13
1,143,5,5.141,2.188,0.621,0.6762,1,1,0.973,0.692,50,46,4,3,,,2.074,1.865,4,left,left,1.496796718,1.539570313,0.837424135,1.004480043,5,Free,"Correct, no change",0.115671196,0.209,0.35801383,2.074,1.865,,,0.0552,730,490,0.73,0.49,10
1,144,5,1.76,2.378,0.6207,0.473,1,1,0.713,1.284,53,50,3,5,,,2.434,3.182,3,left,left,1.493890286,-0.090882117,0.097829922,0.742441771,7,Free,"Correct, no change",1.330218753,-0.748,-0.775474162,2.434,3.182,,,-0.1477,634,772,0.634,0.772,14
1,145,5,5.044,1.755,0.3628,0.3207,1,0,1.807,0.575,47,50,3,5,,,2.848,3.15,-3,right,left,-1.004671781,-1.312919051,0.097829922,-0.829787862,7,Free,Correct to incorrect,1.330218753,-0.302,-0.24722375,3.15,2.848,,,-0.0421,684,735,0.684,0.735,16
1,146,5,1.49,1.643,0.5872,0.6132,0,0,0.926,1.629,50,52,2,4,,,1.966,1.144,-2,left,left,1.169338796,1.034065868,-0.641764291,-0.56774959,7,Free,"Incorrect, no change",0.722944974,0.822,1.084062042,1.966,1.144,,,0.026,758,735,0.758,0.735,4
1,147,6,7.519,1.8,0.3123,0.3327,0,0,2.915,4.294,47,50,3,3,,,1.83,2.003,-3,left,left,-1.493921042,-1.21663249,0.097829922,-0.829787862,5,Free,"Incorrect, no change",0.115671196,-0.173,-0.094433832,1.83,2.003,,,0.0204,678,812,0.678,0.812,12
1,148,6,1.734,1.962,0.523,0.5932,1,1,1.071,1.12,50,46,4,7,,,2.434,3.206,4,left,left,0.547362508,0.873588267,0.837424135,1.004480043,7,Free,"Correct, no change",2.54476631,-0.772,-0.803900193,2.434,3.206,,,0.0702,666,688,0.666,0.688,11
1,149,6,2.713,2.148,0.3293,0.3692,1,0,0.778,1.132,46,50,4,3,,,1.794,2.487,-4,right,left,-1.329223271,-0.923760867,0.837424135,-1.091826134,5,Free,Correct to incorrect,0.115671196,-0.693,-0.710331174,2.487,1.794,,,0.0399,482,1187,0.482,1.187,12
1,150,6,2.33,2.907,0.55,0.5367,1,1,0.845,0.317,53,50,3,4,,,1.696,2.214,3,left,left,0.808941321,0.420239043,0.097829922,0.742441771,5,Free,"Correct, no change",0.722944974,-0.518,-0.50305803,1.696,2.214,,,-0.0133,892,552,0.892,0.552,10
1,151,6,4.665,1.795,0.543,0.6128,1,1,2.009,0.648,53,50,3,3,,,1.742,2.304,3,left,left,0.741124592,1.030856316,0.097829922,0.742441771,5,Free,"Correct, no change",0.115671196,-0.562,-0.555172421,1.742,2.304,,,0.0698,1169,690,1.169,0.69,11
1,153,6,4.664,1.781,0.4977,0.4373,1,1,0.679,2.145,50,48,2,6,,,3.059,2.832,2,left,left,0.302253472,-0.377334635,-0.641764291,0.480403499,7,Free,"Correct, no change",1.937492532,0.227,0.379333354,3.059,2.832,,,-0.0604,662,993,0.662,0.993,16
1,154,6,2.436,1.447,0.1853,0.3368,0,1,2.056,1.202,50,49,1,7,,,2.754,3.197,1,right,left,-2.724310273,-1.183734582,-1.381358503,0.218365227,7,Free,Incorrect to correct,2.54476631,-0.443,-0.414226683,3.197,2.754,,,0.1515,787,792,0.787,0.792,16
1,157,6,0.974,1.655,0.4947,0.5958,1,1,0.344,0.857,53,50,3,5,,,1.638,2.367,3,left,left,0.27318916,0.894450355,0.097829922,0.742441771,5,Free,"Correct, no change",1.330218753,-0.729,-0.752970221,1.638,2.367,,,0.1011,1033,570,1.033,0.57,10
1,158,6,2.803,1.787,0.551,0.3852,1,1,0.684,1.002,50,48,2,3,,,1.67,2.518,2,left,left,0.818629425,-0.795378786,-0.641764291,0.480403499,5,Free,"Correct, no change",0.115671196,-0.848,-0.893915958,1.67,2.518,,,-0.1658,816,687,0.816,0.687,12
1,160,6,2.526,1.723,0.4842,0.4423,0,1,1.21,0.52,50,51,1,5,,,1.403,2.49,-1,left,right,0.171464066,-0.337215235,-1.381358503,-0.305711318,5,Free,Incorrect to correct,1.330218753,-1.087,-1.176991852,1.403,2.49,,,-0.0419,858,674,0.858,0.674,9
1,161,6,2.77,1.426,0.3913,0.3673,1,0,0.591,1.859,50,52,2,7,,,2.358,3.423,-2,right,left,-0.728560812,-0.93900624,-0.641764291,-0.56774959,7,Free,Correct to incorrect,2.54476631,-1.065,-1.150934657,3.423,2.358,,,-0.024,976,574,0.976,0.574,14
1,162,6,1.887,1.337,0.5562,0.5305,0,0,1.618,0.454,50,52,2,5,,,2.946,2.888,-2,left,left,0.869007567,0.370490987,-0.641764291,-0.56774959,7,Free,"Incorrect, no change",1.330218753,0.058,0.179166717,2.946,2.888,,,-0.0257,708,814,0.708,0.814,15
1,163,6,3.275,0.902,0.4058,0.6782,1,1,0.819,1.388,53,50,3,6,,,2.795,2.328,3,left,left,-0.588083302,1.555618073,0.097829922,0.742441771,7,Free,"Correct, no change",1.937492532,0.467,0.663593665,2.795,2.328,,,0.2724,466,1183,0.466,1.183,13
1,166,6,4.828,2.635,0.4963,0.5877,1,1,0.452,0.765,46,50,4,3,,,1.066,1.376,-4,right,right,0.288690127,0.829456927,0.837424135,-1.091826134,5,Free,"Correct, no change",0.115671196,-0.31,-0.256699093,1.376,1.066,,,0.0914,563,1082,0.563,1.082,6
1,167,6,1.709,0.822,0.3247,0.5785,0,1,3.304,1.648,53,50,3,5,,,2.424,1.484,3,right,left,-1.37378855,0.75563723,0.097829922,0.742441771,7,Free,Incorrect to correct,1.330218753,0.94,1.223823362,1.484,2.424,,,0.2538,441,1142,0.441,1.142,7
1,169,7,3.739,2.357,0.2958,0.3767,1,1,1.091,1.567,50,46,4,5,,,1.912,2.352,4,left,left,-1.653774761,-0.863581767,0.837424135,1.004480043,5,Free,"Correct, no change",1.330218753,-0.44,-0.410673429,1.912,2.352,,,0.0809,670,784,0.67,0.784,11
1,170,7,3.22,4.426,0.348,0.4207,1,1,0.998,0.668,50,53,3,4,,,1.242,2.413,-3,right,right,-1.148055723,-0.510531044,0.097829922,-0.829787862,5,Free,"Correct, no change",0.722944974,-1.171,-1.276482961,2.413,1.242,,,0.0727,884,639,0.884,0.639,6
1,171,7,1.325,1.538,0.5337,0.7027,1,1,1.325,1.135,50,47,3,2,,,1.319,0.592,3,left,left,0.651025223,1.752203134,0.097829922,0.742441771,7,Free,"Correct, no change",-0.491602583,0.727,0.971542336,1.319,0.592,,,0.169,1012,596,1.012,0.596,4
1,172,7,3.436,3.384,0.3122,0.404,1,1,1.986,0.916,50,52,2,5,,,1.479,2.786,-2,right,right,-1.494889853,-0.644529841,-0.641764291,-0.56774959,5,Free,"Correct, no change",1.330218753,-1.307,-1.437563804,2.786,1.479,,,0.0918,800,804,0.8,0.804,11
1,173,7,1.835,3.644,0.3997,0.3993,0,1,0.583,0.941,52,50,2,4,,,2.56,1.524,2,right,left,-0.647180737,-0.682242077,-0.641764291,0.480403499,5,Free,Incorrect to correct,0.722944974,1.036,1.337527487,1.524,2.56,,,-0.0004,492,1014,0.492,1.014,11
1,176,7,1.587,2.575,0.4837,0.3862,1,1,0.672,1.143,52,50,2,7,,,2.932,3.002,2,left,left,0.166620014,-0.787354906,-0.641764291,0.480403499,7,Free,"Correct, no change",2.54476631,-0.07,0.027561218,2.932,3.002,,,-0.0975,832,726,0.832,0.726,15
1,181,7,1.466,2.123,0.3785,0.3673,0,1,1.012,1.983,51,50,1,5,,,2.61,3.024,1,right,left,-0.852568546,-0.93900624,-1.381358503,0.218365227,7,Free,Incorrect to correct,1.330218753,-0.414,-0.379878562,3.024,2.61,,,-0.0112,934,785,0.934,0.785,15
1,182,7,4.367,2.851,0.6172,0.5082,0,0,1.427,0.836,50,48,2,2,,,0.712,1.498,2,right,right,1.459981922,0.191558462,-0.641764291,0.480403499,5,Free,"Incorrect, no change",-0.491602583,-0.786,-0.820482045,1.498,0.712,,,-0.109,436,993,0.436,0.993,4
1,184,7,3.195,1.709,0.5075,0.3895,0,1,0.606,0.917,50,53,3,7,,,3.207,2.568,-3,left,right,0.397196893,-0.760876102,0.097829922,-0.829787862,7,Free,Incorrect to correct,2.54476631,0.639,0.867313555,3.207,2.568,,,-0.118,630,732,0.63,0.732,15
1,185,7,2.042,1.425,0.523,0.3787,0,1,0.895,0.608,50,46,4,6,,,2.188,3.19,4,right,left,0.547362508,-0.847534007,0.837424135,1.004480043,7,Free,Incorrect to correct,1.937492532,-1.002,-1.076316325,3.19,2.188,,,-0.1443,808,754,0.808,0.754,15
1,186,7,2.747,1.755,0.5507,0.4033,1,1,1.188,1.631,55,50,5,6,,,2.904,2.863,5,left,left,0.815722994,-0.650146557,1.577018348,1.266518316,7,Free,"Correct, no change",1.937492532,0.041,0.159031612,2.904,2.863,,,-0.1474,917,614,0.917,0.614,15
1,187,7,1.843,1.56,0.5147,0.7038,1,1,0.981,0.904,50,45,5,1,,,2.158,1.32,5,left,left,0.466951243,1.761029402,1.577018348,1.266518316,7,Free,"Correct, no change",-1.098876361,0.838,1.10301273,2.158,1.32,,,0.1891,668,802,0.668,0.802,8
1,188,7,0.976,3.022,0.5157,0.4777,0,1,1.038,1.047,50,46,4,4,,,2.453,1.986,4,right,left,0.476639348,-0.05316988,0.837424135,1.004480043,5,Free,Incorrect to correct,0.722944974,0.467,0.663593665,1.986,2.453,,,-0.038,816,628,0.816,0.628,11
1,189,8,2.95,1.694,0.2633,0.5065,1,0,1.792,1.276,45,50,5,5,,,2.563,1.528,-5,right,left,-1.968638147,0.177917865,1.577018348,-1.353864406,5,Free,Correct to incorrect,1.330218753,1.035,1.336343069,1.528,2.563,,,0.2432,676,714,0.676,0.714,10
1,191,8,4.828,1.909,0.6015,0.6823,1,1,1.094,1.191,50,46,4,5,,,2.19,1.994,4,left,left,1.307878686,1.588515981,0.837424135,1.004480043,7,Free,"Correct, no change",1.330218753,0.196,0.342616397,2.19,1.994,,,0.0808,1005,602,1.005,0.602,9
1,194,8,2.238,1.703,0.2815,0.401,0,1,0.699,0.914,50,47,3,2,,,2.265,2.034,3,right,left,-1.792314651,-0.668601481,0.097829922,0.742441771,5,Free,Incorrect to correct,-0.491602583,0.231,0.384071025,2.034,2.265,,,0.1195,1036,536,1.036,0.536,13
1,195,8,2.319,1.531,0.5082,0.3995,0,1,1.027,1.52,50,54,4,5,,,2.107,2.054,-4,left,right,0.403978566,-0.680637301,0.837424135,-1.091826134,5,Free,Incorrect to correct,1.330218753,0.053,0.173244628,2.107,2.054,,,-0.1087,922,602,0.922,0.602,9
1,196,8,1.355,3.033,0.4495,0.2997,1,1,1.06,0.302,45,50,5,3,,,1.556,2.581,-5,right,right,-0.164713149,-1.481420532,1.577018348,-1.353864406,5,Free,"Correct, no change",0.115671196,-1.025,-1.103557938,2.581,1.556,,,-0.1498,464,1198,0.464,1.198,11
1,199,8,1.482,1.748,0.556,0.3837,1,1,1.083,0.594,46,50,4,6,,,1.778,3.03,-4,right,right,0.867069946,-0.807414606,0.837424135,-1.091826134,7,Free,"Correct, no change",1.937492532,-1.252,-1.372420816,3.03,1.778,,,-0.1723,414,1124,0.414,1.124,10
1,200,8,1.891,1.503,0.5992,0.3638,0,1,0.941,2.297,50,53,3,4,,,1.735,1.634,-3,left,right,1.285596046,-0.96708982,0.097829922,-0.829787862,5,Free,Incorrect to correct,0.722944974,0.101,0.23009669,1.735,1.634,,,-0.2354,986,466,0.986,0.466,9
1,201,8,2.685,1.253,0.4078,0.5742,0,1,0.291,1.311,50,46,4,4,,,1.97,1.496,4,right,left,-0.568707093,0.721134546,0.837424135,1.004480043,5,Free,Incorrect to correct,0.722944974,0.474,0.671884591,1.496,1.97,,,0.1664,1236,426,1.236,0.426,7
1,204,8,2.544,1.855,0.3437,0.281,1,1,1.368,1.901,50,44,6,7,,,2.226,3.44,6,left,left,-1.189714571,-1.631467089,2.316612561,1.528556588,7,Free,"Correct, no change",2.54476631,-1.214,-1.327412933,2.226,3.44,,,-0.0627,480,1158,0.48,1.158,13
1,205,8,1.519,2.854,0.446,0.3332,1,1,0.807,0.565,45,50,5,4,,,1.941,1.808,-5,right,right,-0.198621514,-1.21262055,1.577018348,-1.353864406,5,Free,"Correct, no change",0.722944974,0.133,0.267998065,1.808,1.941,,,-0.1128,692,942,0.692,0.942,8
1,206,8,2.992,1.502,0.5605,0.3592,1,0,0.771,0.942,50,55,5,7,,,3.693,2.224,-5,right,left,0.910666415,-1.003999668,1.577018348,-1.353864406,7,Free,Correct to incorrect,2.54476631,1.469,1.850380465,2.224,3.693,,,-0.2013,876,696,0.876,0.696,14
1,207,8,4.8,5.578,0.4462,0.5697,1,1,1.521,0.426,54,50,4,6,,,2.607,2.954,4,left,left,-0.196683893,0.685027086,0.837424135,1.004480043,7,Free,"Correct, no change",1.937492532,-0.347,-0.300522558,2.607,2.954,,,0.1235,602,610,0.602,0.61,10
1,208,8,3.261,1.436,0.3353,0.3563,0,0,1.363,0.726,50,46,4,7,,,2.645,3.358,4,right,right,-1.271094646,-1.02726892,0.837424135,1.004480043,7,Free,"Incorrect, no change",2.54476631,-0.713,-0.734019533,3.358,2.645,,,0.021,684,892,0.684,0.892,13
1,209,8,2.372,1.338,0.5803,0.6572,1,1,0.588,1.176,55,50,5,6,,,1.76,2.05,5,left,left,1.102490878,1.387116591,1.577018348,1.266518316,5,Free,"Correct, no change",1.937492532,-0.29,-0.233010734,1.76,2.05,,,0.0769,844,570,0.844,0.57,8
1,210,8,1.855,4.417,0.5965,0.6212,1,1,0.77,0.685,55,50,5,6,,,2.93,2.954,5,left,left,1.259438165,1.098256909,1.577018348,1.266518316,7,Free,"Correct, no change",1.937492532,-0.024,0.082044444,2.93,2.954,,,0.0247,686,844,0.686,0.844,12
2,23,0,1.5,1.402,0.7987,0.9538,1,1,0.503,1.072,48,50,2,4,,,1.19,1.871,-2,right,right,0.806634733,1.106602276,-0.718643632,-0.675380773,5,Free,"Correct, no change",0.215698117,-0.681,-0.750022683,1.871,1.19,,,0.1551,813,844,0.813,0.844,3
2,24,0,1.405,1.219,0.651,0.8513,0,1,0.774,3.198,48,50,2,7,,,2.256,1.517,-2,left,right,0.058891978,0.609649399,-0.718643632,-0.675380773,5,Free,Incorrect to correct,1.35037054,0.739,0.748715936,2.256,1.517,,,0.2003,618,1002,0.618,1.002,4
2,27,0,1.37,1.455,0.9392,0.8888,1,1,0.623,0.826,50,52,2,8,,,1.444,1.872,-2,right,right,1.517926928,0.791461427,-0.718643632,-0.675380773,7,Free,"Correct, no change",1.728594681,-0.428,-0.482993901,1.872,1.444,,,-0.0504,1007,596,1.007,0.596,3
2,28,0,1.389,1.542,0.856,0.7117,1,1,0.654,0.436,52,50,2,7,,,1.684,2.176,2,left,left,1.096720447,-0.067176177,-0.718643632,0.706538095,5,Free,"Correct, no change",1.35037054,-0.492,-0.550542684,1.684,2.176,,,-0.1443,726,874,0.726,0.874,1
2,29,0,1.267,1.506,0.7172,0.8618,1,0,0.497,11.768,50,49,1,6,,,1.502,2.005,1,left,right,0.394034634,0.660556767,-1.61813798,0.361058378,5,Free,Correct to incorrect,0.972146399,-0.503,-0.562152631,1.502,2.005,,,0.1446,558,1030,0.558,1.03,6
2,30,0,1.152,1.822,0.6498,0.6468,0,0,0.813,1.315,50,51,1,5,,,2.426,2.126,-1,left,left,0.052816884,-0.381832194,-1.61813798,-0.329901056,7,Free,"Incorrect, no change",0.593922258,0.3,0.285373504,2.426,2.126,,,-0.003,805,888,0.805,0.888,7
2,31,0,1.429,1.117,0.8575,0.9392,1,1,0.806,1.228,48,50,2,5,,,1.922,2.818,-2,right,right,1.104314313,1.035816793,-0.718643632,-0.675380773,7,Free,"Correct, no change",0.593922258,-0.896,-0.976944376,2.818,1.922,,,0.0817,888,759,0.888,0.759,9
2,32,0,1.254,2.371,0.8187,0.8028,1,1,0.737,2.517,48,50,2,8,,,2.432,3,-2,right,right,0.907886291,0.374505843,-0.718643632,-0.675380773,7,Free,"Correct, no change",1.728594681,-0.568,-0.630756864,3,2.432,,,-0.0159,842,789,0.842,0.789,10
2,34,0,1.298,1.337,0.853,0.8728,1,1,1.807,1.092,49,50,1,6,,,1.366,2.272,-1,right,right,1.081532713,0.713888295,-1.61813798,-0.329901056,7,Free,"Correct, no change",0.972146399,-0.906,-0.987498873,2.272,1.366,,,0.0198,944,768,0.944,0.768,6
2,36,0,1.036,1.345,0.7503,0.7005,1,0,0.491,0.515,50,51,1,7,,,1.78,1.754,-1,right,left,0.561605963,-0.12147737,-1.61813798,-0.329901056,5,Free,Correct to incorrect,1.35037054,0.026,-0.003819723,1.754,1.78,,,-0.0498,796,860,0.796,0.86,6
2,37,0,1.225,1.173,0.572,0.5775,0,0,0.397,2.156,50,51,1,6,,,1.914,1.887,-1,left,left,-0.341051676,-0.717820822,-1.61813798,-0.329901056,5,Free,"Incorrect, no change",0.972146399,0.027,-0.002764273,1.914,1.887,,,0.0055,784,858,0.784,0.858,4
2,38,0,1.322,1.495,0.2472,0.4088,0,1,0.91,5.231,50,52,2,9,,,2.126,3.048,-2,left,right,-1.985376977,-1.535732532,-0.718643632,-0.675380773,7,Free,Incorrect to correct,2.106818822,-0.922,-1.004386069,2.126,3.048,,,0.1616,777,888,0.777,0.888,5
2,40,0,1.339,1.409,0.5698,0.291,1,1,1.014,1.097,50,53,3,9,,,2.688,2.602,-3,right,right,-0.352189348,-2.106864717,0.180850715,-1.02086049,7,Free,"Correct, no change",2.106818822,0.086,0.059507261,2.602,2.688,,,-0.2788,778,866,0.778,0.866,8
2,42,1,1.777,1.51,0.7215,0.567,0,0,0.705,2.844,50,48,2,5,,,2.044,1.983,2,right,right,0.415803719,-0.76872819,-0.718643632,0.706538095,5,Free,"Incorrect, no change",0.593922258,0.061,0.033121018,1.983,2.044,,,-0.1545,904,767,0.904,0.767,9
2,46,1,1.484,1.951,0.6093,0.2835,1,0,0.796,0.973,50,52,2,7,,,2.698,2.952,-2,right,left,-0.152217521,-2.143227122,-0.718643632,-0.675380773,7,Free,Correct to incorrect,1.35037054,-0.254,-0.299345648,2.952,2.698,,,-0.3258,797,928,0.797,0.928,9
2,47,1,1.428,1.595,0.3302,0.34,0,0,0.452,1.403,50,51,1,7,,,2.672,2.689,-1,left,left,-1.565183012,-1.869297,-1.61813798,-0.329901056,7,Free,"Incorrect, no change",1.35037054,-0.017,-0.049204061,2.672,2.689,,,0.0098,916,789,0.916,0.789,6
2,48,1,1.47,1.631,0.6098,0.5762,0,1,0.454,1.208,52,50,2,8,,,2.56,2.772,2,right,left,-0.149686232,-0.724123639,-0.718643632,0.706538095,7,Free,Incorrect to correct,1.728594681,-0.212,-0.255016759,2.772,2.56,,,-0.0336,812,904,0.812,0.904,6
2,50,1,1.113,1.729,0.6457,0.487,0,0,0.533,1.208,50,53,3,8,,,1.362,2.309,-3,left,left,0.032060315,-1.15659385,0.180850715,-1.02086049,5,Free,"Incorrect, no change",1.728594681,-0.947,-1.030772312,1.362,2.309,,,-0.1587,793,866,0.793,0.866,3
2,51,1,1.031,2.076,0.8647,0.8787,1,1,0.392,1.258,46,50,4,6,,,2.552,2.586,-4,right,right,1.140764874,0.742493388,1.080345063,-1.366340207,7,Free,"Correct, no change",0.972146399,-0.034,-0.067146707,2.586,2.552,,,0.014,918,586,0.918,0.586,2
2,54,1,1.89,1.223,0.6885,0.6137,0,1,0.42,0.621,54,50,4,8,,,3.326,2.138,4,right,left,0.248738649,-0.542311611,1.080345063,1.397497529,7,Free,Incorrect to correct,1.728594681,1.188,1.222612866,2.138,3.326,,,-0.0748,920,761,0.92,0.761,6
2,55,1,0.931,1.888,0.8887,1.0125,1,1,0.634,1.497,55,50,5,4,,,1.504,1.371,5,left,left,1.262266744,1.391198704,1.97983941,1.742977246,5,Free,"Correct, no change",0.215698117,0.133,0.109113398,1.504,1.371,,,0.1238,462,888,0.462,0.888,2
2,56,1,1.41,1.514,0.9162,0.8617,1,1,0.649,0.494,45,50,5,5,,,1.792,1.933,-5,right,right,1.401487636,0.660071935,1.97983941,-1.711819924,5,Free,"Correct, no change",0.593922258,-0.141,-0.180079828,1.933,1.792,,,-0.0545,976,789,0.976,0.789,2
2,57,1,1.557,1.436,0.4883,0.598,1,1,0.772,0.893,46,50,4,6,,,1.762,2.321,-4,right,right,-0.764789446,-0.618430247,1.080345063,-1.366340207,5,Free,"Correct, no change",0.972146399,-0.559,-0.621257816,2.321,1.762,,,0.1097,827,880,0.827,0.88,5
2,58,1,1.024,1.273,0.7487,0.6837,1,1,0.372,0.938,46,50,4,6,,,1.7,2.49,-4,right,right,0.553505838,-0.202929158,1.080345063,-1.366340207,5,Free,"Correct, no change",0.972146399,-0.79,-0.865066704,2.49,1.7,,,-0.065,780,870,0.78,0.87,4
2,59,1,1.269,1.909,0.677,0.7388,1,1,0.585,1.803,53,50,3,8,,,2.608,2.204,3,left,left,0.190519003,0.064213315,0.180850715,1.052017812,7,Free,"Correct, no change",1.728594681,0.404,0.395140276,2.608,2.204,,,0.0618,898,590,0.898,0.59,4
2,60,1,1.188,2.249,0.5643,0.7498,1,1,0.747,0.711,53,50,3,4,,,2.486,1.693,3,left,left,-0.380033526,0.117544843,0.180850715,1.052017812,7,Free,"Correct, no change",0.215698117,0.793,0.805710221,2.486,1.693,,,0.1855,788,906,0.788,0.906,5
2,61,1,1.546,1.225,0.6982,0.8615,1,1,0.379,0.838,48,50,2,7,,,2.417,1.998,-2,right,right,0.297845654,0.659102271,-0.718643632,-0.675380773,5,Free,"Correct, no change",1.35037054,0.419,0.410972022,1.998,2.417,,,0.1633,795,942,0.795,0.942,4
2,62,1,1.173,1.656,0.8425,0.8335,0,0,0.511,0.71,52,50,2,5,,,1.388,2.648,2,right,right,1.028375645,0.52334929,-0.718643632,0.706538095,5,Free,"Incorrect, no change",0.593922258,-1.26,-1.361128078,2.648,1.388,,,-0.009,768,884,0.768,0.884,3
2,65,2,1.482,1.449,0.5878,0.4068,1,1,0.746,0.789,52,50,2,7,,,2.078,2.122,2,left,left,-0.261062946,-1.545429174,-0.718643632,0.706538095,5,Free,"Correct, no change",1.35037054,-0.044,-0.077701204,2.078,2.122,,,-0.181,806,858,0.806,0.858,3
2,67,2,1.117,1.128,0.6622,0.8497,1,1,0.473,0.599,50,47,3,5,,,2.452,2.058,3,left,left,0.11559285,0.601892086,0.180850715,1.052017812,7,Free,"Correct, no change",0.593922258,0.394,0.384585778,2.452,2.058,,,0.1875,786,916,0.786,0.916,6
2,69,2,1.705,1.609,0.6622,0.6932,1,1,0.8,0.919,46,50,4,6,,,2.424,1.6,-4,right,right,0.11559285,-0.156870111,1.080345063,-1.366340207,5,Free,"Correct, no change",0.972146399,0.824,0.838429163,1.6,2.424,,,0.031,980,784,0.98,0.784,2
2,70,2,1.278,2.066,0.3528,0.8322,1,1,0.455,0.924,50,54,4,5,,,1.799,2.68,-4,right,right,-1.450768751,0.517046473,1.080345063,-1.366340207,7,Free,"Correct, no change",0.593922258,-0.881,-0.96111263,2.68,1.799,,,0.4794,940,778,0.94,0.778,3
2,71,2,1.363,1.247,0.576,0.7048,0,0,0.585,0.437,53,50,3,5,,,2.224,1.965,3,right,right,-0.320801365,-0.100629591,0.180850715,1.052017812,5,Free,"Incorrect, no change",0.593922258,0.259,0.242100065,1.965,2.224,,,0.1288,910,775,0.91,0.775,3
2,72,2,1.299,1.885,0.7143,0.736,1,1,0.343,0.395,50,54,4,5,,,1.616,2.128,-4,right,right,0.379353158,0.050638017,1.080345063,-1.366340207,5,Free,"Correct, no change",0.593922258,-0.512,-0.571651679,2.128,1.616,,,0.0217,912,700,0.912,0.7,6
2,73,2,1.578,1.36,0.5498,0.6523,1,1,0.665,1.052,46,50,4,11,,,2.754,2.727,-4,right,right,-0.453440906,-0.35516643,1.080345063,-1.366340207,7,Free,"Correct, no change",2.863267104,0.027,-0.002764273,2.727,2.754,,,0.1025,910,756,0.91,0.756,3
2,75,2,2.687,1.531,0.7135,0.7612,1,1,0.468,0.452,50,53,3,6,,,1.23,2.726,-3,right,right,0.375303096,0.1728157,0.180850715,-1.02086049,7,Free,"Correct, no change",0.972146399,-1.496,-1.610214215,2.726,1.23,,,0.0477,827,932,0.827,0.932,4
2,76,2,0.948,1.336,0.955,0.8763,1,1,0.844,0.42,48,50,2,6,,,2.208,1.705,-2,right,right,1.597915658,0.730857418,-0.718643632,-0.675380773,5,Free,"Correct, no change",0.972146399,0.503,0.499629799,1.705,2.208,,,-0.0787,968,584,0.968,0.584,4
2,77,2,1.293,1.578,0.7187,0.6883,0,0,0.58,0.46,52,50,2,7,,,2.018,2.74,2,right,right,0.401628501,-0.180626883,-0.718643632,0.706538095,7,Free,"Incorrect, no change",1.35037054,-0.722,-0.793296122,2.74,2.018,,,-0.0304,908,764,0.908,0.764,0
2,80,2,1.395,1.683,0.7827,0.6842,1,1,0.554,0.678,54,50,4,4,,,2.206,1.388,4,left,left,0.725633487,-0.200504998,1.080345063,1.397497529,7,Free,"Correct, no change",0.215698117,0.818,0.832096465,2.206,1.388,,,-0.0985,1012,746,1.012,0.746,4
2,81,2,0.818,1.397,0.775,0.83,1,1,0.51,1.081,50,47,3,5,,,3.14,1.904,3,left,left,0.686651637,0.506380167,0.180850715,1.052017812,7,Free,"Correct, no change",0.593922258,1.236,1.273274453,3.14,1.904,,,0.055,636,942,0.636,0.942,3
2,82,2,1.529,1.754,0.4117,0.841,1,1,0.559,0.468,50,47,3,0,,,1.004,1.228,3,left,left,-1.152582913,0.559711695,0.180850715,1.052017812,5,Free,"Correct, no change",-1.297198446,-0.224,-0.267682156,1.004,1.228,,,0.4293,822,850,0.822,0.85,2
2,84,3,1.996,1.829,0.6105,0.7877,1,1,0.715,0.274,50,47,3,7,,,2.208,1.542,3,left,left,-0.146142427,0.301296199,0.180850715,1.052017812,5,Free,"Correct, no change",1.35037054,0.666,0.671668106,2.208,1.542,,,0.1772,702,796,0.702,0.796,3
2,89,3,1.324,1.242,0.223,0.6318,1,1,0.43,0.629,50,47,3,8,,,2.109,1.714,3,left,left,-2.107891362,-0.454557005,0.180850715,1.052017812,5,Free,"Correct, no change",1.728594681,0.395,0.385641228,2.109,1.714,,,0.4088,938,789,0.938,0.789,1
2,90,3,1.7,1.44,0.7035,0.4747,0,0,0.409,0.629,50,48,2,7,,,2.18,2.089,2,right,right,0.324677317,-1.216228195,-0.718643632,0.706538095,5,Free,"Incorrect, no change",1.35037054,0.091,0.06478451,2.089,2.18,,,-0.2288,843,890,0.843,0.89,3
2,91,3,3.272,1.65,0.4212,0.865,1,1,0.355,0.634,50,53,3,6,,,1.65,2.027,-3,right,right,-1.104488423,0.676071393,0.180850715,-1.02086049,5,Free,"Correct, no change",0.972146399,-0.377,-0.429165965,2.027,1.65,,,0.4438,818,878,0.818,0.878,3
2,92,3,1.405,1.686,0.6403,0.669,1,1,0.278,0.434,47,50,3,11,,,2.892,2.708,-3,right,right,0.004722394,-0.274199473,0.180850715,-1.02086049,7,Free,"Correct, no change",2.863267104,0.184,0.162941335,2.708,2.892,,,0.0287,738,902,0.738,0.902,2
2,93,3,1.257,1.427,0.2902,0.6332,1,1,0.4,0.663,50,52,2,9,,,3.1,2.522,-2,right,right,-1.767686128,-0.447769356,-0.718643632,-0.675380773,7,Free,"Correct, no change",2.106818822,0.578,0.578788529,2.522,3.1,,,0.343,802,916,0.802,0.916,6
2,94,3,1.274,1.319,0.6998,0.718,1,0,3.594,5.797,50,52,2,9,,,3.422,2.408,-2,right,left,0.305945779,-0.036631757,-0.718643632,-0.675380773,7,Free,Correct to incorrect,2.106818822,1.014,1.038964612,2.408,3.422,,,0.0182,801,868,0.801,0.868,4
2,95,3,1.085,1.364,0.9693,0.9557,1,1,0.653,0.803,49,50,1,4,,,1.168,3.553,-1,right,right,1.670310522,1.115814085,-1.61813798,-0.329901056,7,Free,"Correct, no change",0.215698117,-2.385,-2.548509026,3.553,1.168,,,-0.0136,1030,614,1.03,0.614,3
2,96,3,1.301,1.056,0.4113,0.7337,0,0,0.616,0.674,50,51,1,6,,,2.35,1.636,-1,left,left,-1.154607944,0.039486879,-1.61813798,-0.329901056,5,Free,"Incorrect, no change",0.972146399,0.714,0.722329693,2.35,1.636,,,0.3224,774,916,0.774,0.916,7
2,97,3,1.41,1.63,0.7018,0.8328,0,0,0.307,0.389,52,50,2,3,,,1.186,2.006,2,right,right,0.316070935,0.519955465,-0.718643632,0.706538095,5,Free,"Incorrect, no change",-0.162526023,-0.82,-0.896730196,2.006,1.186,,,0.131,1056,683,1.056,0.683,3
2,98,3,1.215,1.394,0.8272,0.8788,1,0,0.442,0.652,53,50,3,6,,,2.066,1.842,3,left,right,0.950918203,0.74297822,0.180850715,1.052017812,5,Free,Correct to incorrect,0.972146399,0.224,0.205159324,2.066,1.842,,,0.0516,688,922,0.688,0.922,5
2,101,3,1.888,1.433,0.1493,0.4957,0,0,0.496,0.824,50,48,2,6,,,2.284,1.68,2,right,right,-2.481003353,-1.114413459,-0.718643632,0.706538095,5,Free,"Incorrect, no change",0.972146399,0.604,0.606230222,1.68,2.284,,,0.3464,615,966,0.615,0.966,4
2,103,3,1.661,1.772,0.7023,0.658,1,1,4.817,0.872,50,53,3,10,,,2.374,2.27,-3,right,right,0.318602224,-0.327531002,0.180850715,-1.02086049,7,Free,"Correct, no change",2.485042963,0.104,0.078505356,2.27,2.374,,,-0.0443,1048,708,1.048,0.708,1
2,104,3,1.431,1.739,0.4918,0.7943,1,1,0.67,0.864,50,52,2,5,,,2.196,2.696,-2,right,right,-0.747070424,0.333295116,-0.718643632,-0.675380773,7,Free,"Correct, no change",0.593922258,-0.5,-0.558986282,2.696,2.196,,,0.3025,888,802,0.888,0.802,5
2,105,4,1.326,1.463,0.566,0.6728,0,0,0.392,0.359,50,48,2,10,,,2.752,2.838,2,right,right,-0.371427144,-0.255775855,-0.718643632,0.706538095,7,Free,"Incorrect, no change",2.485042963,-0.086,-0.122030093,2.838,2.752,,,0.1068,1041,602,1.041,0.602,6
2,106,4,1.909,1.517,0.6338,0.483,0,1,0.408,0.403,50,47,3,7,,,2.015,2.15,3,right,left,-0.028184362,-1.175987133,0.180850715,1.052017812,5,Free,Incorrect to correct,1.35037054,-0.135,-0.17374713,2.15,2.015,,,-0.1508,606,916,0.606,0.916,3
2,107,4,1.114,1.475,0.5877,0.3778,1,0,0.322,1.187,50,54,4,6,,,2.262,1.704,-4,right,left,-0.261569203,-1.686030476,1.080345063,-1.366340207,5,Free,Correct to incorrect,0.972146399,0.558,0.557679534,1.704,2.262,,,-0.2099,780,954,0.78,0.954,7
2,108,4,1.255,1.524,0.9218,0.8375,1,1,0.461,0.462,46,50,4,6,,,1.654,2.451,-4,right,right,1.429838072,0.542742573,1.080345063,-1.366340207,5,Free,"Correct, no change",0.972146399,-0.797,-0.872454852,2.451,1.654,,,-0.0843,714,944,0.714,0.944,1
2,109,4,1.9,1.66,0.5677,0.74,1,1,0.971,0.432,47,50,3,4,,,1.052,1.906,-3,right,right,-0.362820761,0.0700313,0.180850715,-1.02086049,5,Free,"Correct, no change",0.215698117,-0.854,-0.932615487,1.906,1.052,,,0.1723,914,803,0.914,0.803,2
2,110,4,1.079,1.521,0.8808,0.9853,1,1,0.619,0.716,53,50,3,8,,,2.568,2.604,3,left,left,1.222272378,1.259324379,0.180850715,1.052017812,7,Free,"Correct, no change",1.728594681,-0.036,-0.069257606,2.568,2.604,,,0.1045,616,930,0.616,0.93,0
2,112,4,1.021,1.599,0.6478,0.8877,1,1,0.287,0.857,50,53,3,5,,,2.089,1.574,-3,right,right,0.042691728,0.786128274,0.180850715,-1.02086049,5,Free,"Correct, no change",0.593922258,0.515,0.512295196,1.574,2.089,,,0.2399,974,670,0.974,0.67,4
2,113,4,1.674,1.232,0.613,0.6595,1,1,1.614,0.539,53,50,3,6,,,2.506,1.672,3,left,left,-0.133485983,-0.320258521,0.180850715,1.052017812,7,Free,"Correct, no change",0.972146399,0.834,0.84898366,2.506,1.672,,,0.0465,934,754,0.934,0.754,2
2,117,4,1.27,1.631,0.6065,0.7418,1,1,0.336,0.436,52,50,2,5,,,2.092,1.618,2,left,left,-0.166392739,0.078758277,-0.718643632,0.706538095,7,Free,"Correct, no change",0.593922258,0.474,0.469021757,2.092,1.618,,,0.1353,892,746,0.892,0.746,3
2,118,4,1.132,1.345,0.8508,0.9473,1,1,0.501,0.733,50,48,2,9,,,2.331,2.186,2,left,left,1.070395041,1.075088191,-0.718643632,0.706538095,7,Free,"Correct, no change",2.106818822,0.145,0.121778795,2.331,2.186,,,0.0965,560,950,0.56,0.95,1
2,119,4,1.437,2.579,0.8598,0.2113,0,1,0.327,1.256,51,50,1,6,,,2.803,1.65,1,right,left,1.115958243,-2.49327588,-1.61813798,0.361058378,5,Free,Incorrect to correct,0.972146399,1.153,1.185672125,1.65,2.803,,,-0.6485,524,920,0.524,0.92,6
2,120,4,1.315,1.471,0.7425,0.7148,1,1,0.495,0.739,52,50,2,9,,,2.566,2.518,2,left,left,0.522117855,-0.052146383,-0.718643632,0.706538095,7,Free,"Correct, no change",2.106818822,0.048,0.019400171,2.566,2.518,,,-0.0277,794,944,0.794,0.944,4
2,121,4,1.453,1.323,0.6267,0.815,1,1,0.353,0.786,48,50,2,8,,,2.214,3.254,-2,right,right,-0.064128665,0.433655356,-0.718643632,-0.675380773,7,Free,"Correct, no change",1.728594681,-1.04,-1.128929137,3.254,2.214,,,0.1883,540,1140,0.54,1.14,8
2,123,4,1.327,1.419,0.6558,0.987,1,1,0.306,0.535,48,50,2,7,,,1.527,1.608,-2,right,right,0.083192351,1.267566525,-0.718643632,-0.675380773,5,Free,"Correct, no change",1.35037054,-0.081,-0.116752844,1.608,1.527,,,0.3312,706,926,0.706,0.926,1
2,126,5,1.266,1.475,0.7117,0.79,1,1,0.61,1.024,50,52,2,10,,,2.188,3.473,-2,right,right,0.366190456,0.312447337,-0.718643632,-0.675380773,7,Free,"Correct, no change",2.485042963,-1.285,-1.387514321,3.473,2.188,,,0.0783,968,760,0.968,0.76,1
2,127,5,1.344,1.328,0.686,0.8202,1,1,0.717,0.657,52,50,2,5,,,1.818,1.891,2,left,left,0.236082204,0.458866624,-0.718643632,0.706538095,5,Free,"Correct, no change",0.593922258,-0.073,-0.108309246,1.818,1.891,,,0.1342,984,769,0.984,0.769,2
2,129,5,1.373,1.491,0.8017,0.8673,0,0,0.398,0.478,51,50,1,6,,,2.474,2.01,1,right,right,0.821822467,0.687222531,-1.61813798,0.361058378,7,Free,"Incorrect, no change",0.972146399,0.464,0.45846726,2.01,2.474,,,0.0656,682,902,0.682,0.902,0
2,130,5,1.673,1.404,0.5563,0.7487,1,1,0.36,1.066,50,48,2,7,,,2.554,2.203,2,left,left,-0.420534149,0.11221169,-0.718643632,0.706538095,7,Free,"Correct, no change",1.35037054,0.351,0.33920144,2.554,2.203,,,0.1924,816,932,0.816,0.932,5
2,131,5,1.373,1.323,0.4863,0.7035,0,1,0.36,0.376,48,50,2,7,,,2.491,1.974,-2,left,right,-0.774914602,-0.106932408,-0.718643632,-0.675380773,5,Free,Incorrect to correct,1.35037054,0.517,0.514406095,2.491,1.974,,,0.2172,826,930,0.826,0.93,4
2,133,5,1.573,1.773,0.5462,0.6453,1,1,0.471,3.128,50,53,3,8,,,2.396,3.468,-3,right,right,-0.471666186,-0.389104675,0.180850715,-1.02086049,7,Free,"Correct, no change",1.728594681,-1.072,-1.162703528,3.468,2.396,,,0.0991,932,759,0.932,0.759,3
2,134,5,3.06,1.314,0.407,0.8157,1,1,1.949,0.658,52,50,2,5,,,2.403,1.642,2,left,left,-1.176377029,0.43704918,-0.718643632,0.706538095,5,Free,"Correct, no change",0.593922258,0.761,0.77193583,2.403,1.642,,,0.4087,956,762,0.956,0.762,4
2,135,5,1.172,2.861,0.1132,0.5183,0,1,0.776,1.719,50,48,2,11,,,3.226,2.453,2,right,left,-2.663762415,-1.00484141,-0.718643632,0.706538095,7,Free,Incorrect to correct,2.863267104,0.773,0.784601227,2.453,3.226,,,0.4051,936,731,0.936,0.731,6
2,136,5,3.059,1.55,0.504,0.5535,0,0,2.722,3.14,50,47,3,7,,,2.326,1.925,3,right,right,-0.685306973,-0.83418052,0.180850715,1.052017812,5,Free,"Incorrect, no change",1.35037054,0.401,0.391973927,1.925,2.326,,,0.0495,651,1026,0.651,1.026,5
2,137,5,1.335,2.223,0.4222,0.5527,1,1,0.962,3.603,50,54,4,10,,,2.646,2.972,-4,right,right,-1.099425845,-0.838059177,1.080345063,-1.366340207,7,Free,"Correct, no change",2.485042963,-0.326,-0.375338028,2.972,2.646,,,0.1305,912,774,0.912,0.774,2
2,139,5,1.86,1.656,0.2933,0.112,1,1,1.911,2.837,50,47,3,6,,,2.422,1.594,3,left,left,-1.751992136,-2.974714131,0.180850715,1.052017812,5,Free,"Correct, no change",0.972146399,0.828,0.842650962,2.422,1.594,,,-0.1813,964,702,0.964,0.702,5
2,142,5,1.147,1.103,0.5828,0.5427,1,1,0.416,0.447,50,47,3,7,,,2.38,1.886,3,left,left,-0.286375835,-0.886542384,0.180850715,1.052017812,5,Free,"Correct, no change",1.35037054,0.494,0.490130752,2.38,1.886,,,-0.0401,650,910,0.65,0.91,2
2,143,5,1.174,2.987,0.223,0.2262,1,0,0.572,2.562,47,50,3,7,,,2.062,1.974,-3,right,left,-2.107891362,-2.421035901,0.180850715,-1.02086049,5,Free,Correct to incorrect,1.35037054,0.088,0.061618161,1.974,2.062,,,0.0032,819,924,0.819,0.924,2
2,144,5,1.269,1.418,0.233,0.8738,1,1,0.375,0.41,50,48,2,6,,,2.738,1.797,2,left,left,-2.057265583,0.718736616,-0.718643632,0.706538095,7,Free,"Correct, no change",0.972146399,0.941,0.961916782,2.738,1.797,,,0.6408,786,934,0.786,0.934,2
2,145,5,1.576,1.316,0.692,0.6962,1,1,0.356,0.496,50,48,2,7,,,2.374,2.671,2,left,left,0.266457671,-0.142325149,-0.718643632,0.706538095,7,Free,"Correct, no change",1.35037054,-0.297,-0.344729986,2.374,2.671,,,0.0042,904,757,0.904,0.757,6
2,149,6,1.615,1.526,0.8305,0.9342,1,1,0.41,2.156,46,50,4,3,,,1.872,2.556,-4,right,right,0.96762471,1.011575189,1.080345063,-1.366340207,7,Free,"Correct, no change",-0.162526023,-0.684,-0.753189032,2.556,1.872,,,0.1037,966,734,0.966,0.734,4
2,154,6,1.492,1.162,0.7145,0.7735,0,0,0.405,0.984,48,50,2,6,,,2.292,1.303,-2,left,left,0.380365674,0.232450045,-0.718643632,-0.675380773,5,Free,"Incorrect, no change",0.972146399,0.989,1.012578369,2.292,1.303,,,0.059,554,938,0.554,0.938,2
2,155,6,1.312,2.8,0.7528,0.8183,1,1,0.796,0.678,53,50,3,6,,,2.489,2.09,3,left,left,0.574262408,0.449654814,0.180850715,1.052017812,7,Free,"Correct, no change",0.972146399,0.399,0.389863027,2.489,2.09,,,0.0655,912,777,0.912,0.777,4
2,156,6,1.283,2.004,0.8063,0.8518,1,1,0.392,0.394,50,47,3,2,,,2.737,0.356,3,left,left,0.845110325,0.612073559,0.180850715,1.052017812,5,Free,"Correct, no change",-0.540750164,2.381,2.481764396,2.737,0.356,,,0.0455,568,950,0.568,0.95,4
2,157,6,0.84,1.459,0.8627,0.9728,1,1,0.344,3.321,48,50,2,6,,,1.178,2.513,-2,right,right,1.130639718,1.19872037,-0.718643632,-0.675380773,5,Free,"Correct, no change",0.972146399,-1.335,-1.440286808,2.513,1.178,,,0.1101,488,954,0.488,0.954,2
2,158,6,1.065,1.96,0.7275,0.8102,1,1,0.273,0.732,50,48,2,8,,,3.045,2.478,2,left,left,0.446179187,0.410383416,-0.718643632,0.706538095,7,Free,"Correct, no change",1.728594681,0.567,0.567178582,3.045,2.478,,,0.0827,596,970,0.596,0.97,3
2,159,6,1.484,1.818,0.6718,0.8075,1,1,0.316,0.598,49,50,1,5,,,1.166,4.149,-1,right,right,0.164193598,0.39729295,-1.61813798,-0.329901056,7,Free,"Correct, no change",0.593922258,-2.983,-3.179667966,4.149,1.166,,,0.1357,728,962,0.728,0.962,1
2,160,6,1.603,1.958,0.7043,0.7592,0,0,0.375,0.768,50,51,1,5,,,1.668,1.428,-1,left,left,0.32872738,0.163119058,-1.61813798,-0.329901056,5,Free,"Incorrect, no change",0.593922258,0.24,0.22204652,1.668,1.428,,,0.0549,650,1023,0.65,1.023,2
2,161,6,1.426,1.679,0.2833,0.7393,1,1,0.564,0.712,50,48,2,8,,,3.177,2.359,2,left,left,-1.802617915,0.066637475,-0.718643632,0.706538095,7,Free,"Correct, no change",1.728594681,0.818,0.832096465,3.177,2.359,,,0.456,810,924,0.81,0.924,3
2,163,6,1.596,1.356,0.7047,0.4037,0,0,0.617,0.66,51,50,1,7,,,1.758,3.265,1,right,right,0.330752411,-1.560458968,-1.61813798,0.361058378,7,Free,"Incorrect, no change",1.35037054,-1.507,-1.621824162,3.265,1.758,,,-0.301,912,769,0.912,0.769,1
2,164,6,1.499,1.841,0.6233,0.6437,0,1,0.44,0.552,50,48,2,7,,,2.062,1.811,2,right,left,-0.08134143,-0.396861988,-0.718643632,0.706538095,7,Free,Incorrect to correct,1.35037054,0.251,0.233656467,1.811,2.062,,,0.0204,782,919,0.782,0.919,0
2,165,6,1.344,1.436,0.749,0.8535,1,1,0.355,1.957,50,53,3,7,,,1.52,2.088,-3,right,right,0.555024612,0.620315705,0.180850715,-1.02086049,5,Free,"Correct, no change",1.35037054,-0.568,-0.630756864,2.088,1.52,,,0.1045,946,758,0.946,0.758,1
2,166,6,1.68,1.837,0.5787,0.4528,1,1,0.408,0.71,47,50,3,8,,,1.978,2.37,-3,right,right,-0.307132404,-1.322406419,0.180850715,-1.02086049,5,Free,"Correct, no change",1.728594681,-0.392,-0.444997711,2.37,1.978,,,-0.1259,850,805,0.85,0.805,4
2,168,7,0.96,1.372,0.4222,0.8595,1,1,0.526,2.188,50,52,2,5,,,1.398,1.87,-2,right,right,-1.099425845,0.649405629,-0.718643632,-0.675380773,5,Free,"Correct, no change",0.593922258,-0.472,-0.529433689,1.87,1.398,,,0.4373,862,799,0.862,0.799,4
2,169,7,1.596,1.736,0.6195,0.6502,1,1,0.645,0.825,51,50,1,4,,,1.703,1.392,1,left,left,-0.100579226,-0.365347904,-1.61813798,0.361058378,5,Free,"Correct, no change",0.215698117,0.311,0.296983451,1.703,1.392,,,0.0307,954,810,0.954,0.81,2
2,171,7,1.772,1.774,0.702,0.819,0,0,0.395,0.378,52,50,2,6,,,2.593,2.456,2,right,right,0.31708345,0.453048639,-0.718643632,0.706538095,7,Free,"Incorrect, no change",0.972146399,0.137,0.113335197,2.456,2.593,,,0.117,930,815,0.93,0.815,2
2,173,7,1.728,1.548,0.545,1.0197,1,1,0.785,1.274,54,50,4,8,,,2.394,2.264,4,left,left,-0.47774128,1.426106613,1.080345063,1.397497529,7,Free,"Correct, no change",1.728594681,0.13,0.105947049,2.394,2.264,,,0.4747,812,878,0.812,0.878,0
2,174,7,1.343,1.678,0.7195,0.9923,1,1,0.562,0.721,54,50,4,6,,,4.274,1.626,4,left,left,0.405678564,1.293262625,1.080345063,1.397497529,7,Free,"Correct, no change",0.972146399,2.648,2.763569474,4.274,1.626,,,0.2728,898,766,0.898,0.766,4
2,175,7,2.482,1.532,0.6983,0.6155,1,1,0.317,0.389,53,50,3,8,,,1.896,2.023,3,left,left,0.298351912,-0.533584634,0.180850715,1.052017812,5,Free,"Correct, no change",1.728594681,-0.127,-0.165303532,1.896,2.023,,,-0.0828,801,938,0.801,0.938,3
2,176,7,1.342,1.216,0.666,0.8725,0,0,0.682,0.651,53,50,3,7,,,2.119,2.104,3,right,right,0.134830646,0.712433799,0.180850715,1.052017812,5,Free,"Incorrect, no change",1.35037054,0.015,-0.01542967,2.104,2.119,,,0.2065,988,658,0.988,0.658,2
2,179,7,1.519,1.473,0.9467,0.8417,1,1,0.595,0.386,47,50,3,6,,,1.552,2.492,-3,right,right,1.555896262,0.56310552,0.180850715,-1.02086049,5,Free,"Correct, no change",0.972146399,-0.94,-1.023384164,2.492,1.552,,,-0.105,914,578,0.914,0.578,4
2,180,7,1.505,1.925,0.5318,0.8228,0,0,0.418,0.655,50,53,3,7,,,2.382,1.687,-3,left,left,-0.544567308,0.471472258,0.180850715,-1.02086049,7,Free,"Incorrect, no change",1.35037054,0.695,0.702276148,2.382,1.687,,,0.291,924,811,0.924,0.811,1
2,181,7,1.458,1.478,0.9903,0.8898,1,1,1.125,0.695,50,46,4,9,,,2.361,2.287,4,left,left,1.776624658,0.796309748,1.080345063,1.397497529,7,Free,"Correct, no change",2.106818822,0.074,0.046841864,2.361,2.287,,,-0.1005,706,668,0.706,0.668,2
2,182,7,1.303,1.106,0.511,0.727,0,1,0.364,0.382,50,46,4,6,,,2.298,1.604,4,right,left,-0.649868928,0.00700313,1.080345063,1.397497529,5,Free,Incorrect to correct,0.972146399,0.694,0.701220698,1.604,2.298,,,0.216,882,1076,0.882,1.076,6
2,183,7,1.198,2.423,0.727,0.9762,1,1,0.43,1.067,50,45,5,5,,,3.763,1.49,5,left,left,0.443647898,1.215204661,1.97983941,1.742977246,7,Free,"Correct, no change",0.593922258,2.273,2.367775825,3.763,1.49,,,0.2492,588,952,0.588,0.952,8
2,184,7,1.35,1.624,0.7315,0.9837,1,1,0.457,0.753,45,50,5,7,,,1.219,2.269,-5,right,right,0.466429498,1.251567066,1.97983941,-1.711819924,5,Free,"Correct, no change",1.35037054,-1.05,-1.139483634,2.269,1.219,,,0.2522,734,973,0.734,0.973,0
2,185,7,1.292,1.795,0.1987,0.7508,0,1,0.36,0.599,50,54,4,9,,,2.124,2.479,-4,left,right,-2.230912005,0.122393164,1.080345063,-1.366340207,7,Free,Incorrect to correct,2.106818822,-0.355,-0.405946071,2.124,2.479,,,0.5521,831,912,0.831,0.912,0
2,186,7,1.452,1.371,0.4687,0.5168,0,0,0.365,1.465,50,45,5,7,,,1.788,2.382,5,right,right,-0.864015973,-1.012113891,1.97983941,1.742977246,5,Free,"Incorrect, no change",1.35037054,-0.594,-0.658198557,2.382,1.788,,,0.0481,808,878,0.808,0.878,3
2,190,8,2.029,1.724,0.8102,0.7555,1,1,8.456,3.736,55,50,5,6,,,2.162,3.205,5,left,left,0.864854379,0.145180271,1.97983941,1.742977246,7,Free,"Correct, no change",0.972146399,-1.043,-1.132095486,2.162,3.205,,,-0.0547,874,806,0.874,0.806,4
2,192,8,1.597,1.529,0.7702,0.9995,1,1,0.464,1.078,46,50,4,4,,,3.134,1.418,-4,right,right,0.662351263,1.328170534,1.080345063,-1.366340207,7,Free,"Correct, no change",0.215698117,1.716,1.779890324,1.418,3.134,,,0.2293,824,916,0.824,0.916,0
2,193,8,0.99,1.44,0.799,0.9,1,1,0.323,0.414,50,46,4,7,,,1.658,1.918,4,left,left,0.808153506,0.84576262,1.080345063,1.397497529,5,Free,"Correct, no change",1.35037054,-0.26,-0.305678346,1.658,1.918,,,0.101,988,781,0.988,0.781,1
2,194,8,1.228,4.237,0.346,0.8202,0,1,0.574,1.738,50,47,3,6,,,3.382,1.54,3,right,left,-1.485194281,0.458866624,0.180850715,1.052017812,7,Free,Incorrect to correct,0.972146399,1.842,1.91287699,1.54,3.382,,,0.4742,744,911,0.744,0.911,0
2,195,8,1.359,1.812,0.8192,0.875,1,1,0.43,1.06,46,50,4,5,,,1.06,2.484,-4,right,right,0.91041758,0.724554601,1.080345063,-1.366340207,5,Free,"Correct, no change",0.593922258,-1.424,-1.534221834,2.484,1.06,,,0.0558,956,682,0.956,0.682,2
2,196,8,1.346,2.573,0.7928,1.0007,1,1,0.512,5.737,46,50,4,6,,,1.25,3.603,-4,right,right,0.776765523,1.333988519,1.080345063,-1.366340207,7,Free,"Correct, no change",0.972146399,-2.353,-2.514734635,3.603,1.25,,,0.2079,734,930,0.734,0.93,3
2,197,8,1.178,1.878,0.5283,0.8313,0,0,0.357,0.955,50,53,3,7,,,1.96,2.056,-3,left,left,-0.56228633,0.512682984,0.180850715,-1.02086049,5,Free,"Incorrect, no change",1.35037054,-0.096,-0.13258459,1.96,2.056,,,0.303,801,954,0.801,0.954,1
2,198,8,1.304,2.026,0.3092,0.7647,0,1,0.615,0.643,54,50,4,7,,,2.131,2.07,4,right,left,-1.671497148,0.189784822,1.080345063,1.397497529,5,Free,Incorrect to correct,1.35037054,0.061,0.033121018,2.07,2.131,,,0.4555,928,795,0.928,0.795,2
2,199,8,1.419,1.855,0.6223,0.96,1,1,0.392,1.484,50,45,5,4,,,2.898,1.007,5,left,left,-0.086404008,1.136661864,1.97983941,1.742977246,5,Free,"Correct, no change",0.215698117,1.891,1.964594027,2.898,1.007,,,0.3377,732,936,0.732,0.936,4
2,200,8,3.556,2.296,0.9118,0.9962,1,1,0.823,1.306,50,45,5,5,,,4.193,1.136,5,left,left,1.379212293,1.312171076,1.97983941,1.742977246,7,Free,"Correct, no change",0.593922258,3.057,3.195248414,4.193,1.136,,,0.0844,920,662,0.92,0.662,5
2,201,8,1.067,2.051,0.7743,0.8562,1,1,0.387,0.649,50,46,4,7,,,2.897,2.342,4,left,left,0.683107832,0.633406171,1.080345063,1.397497529,7,Free,"Correct, no change",1.35037054,0.555,0.554513185,2.897,2.342,,,0.0819,458,940,0.458,0.94,2
2,204,8,1.129,1.46,0.7178,0.9613,1,1,0.553,0.716,50,54,4,5,,,1.003,3.22,-4,right,right,0.397072181,1.142964681,1.080345063,-1.366340207,5,Free,"Correct, no change",0.593922258,-2.217,-2.371193471,3.22,1.003,,,0.2435,892,702,0.892,0.702,6
2,207,8,1.617,1.982,0.2432,0.5843,0,1,0.395,1.825,50,47,3,8,,,2.632,1.748,3,right,left,-2.005627289,-0.684852241,0.180850715,1.052017812,5,Free,Incorrect to correct,1.728594681,0.884,0.901756147,1.748,2.632,,,0.3411,948,786,0.948,0.786,2
2,210,8,1.348,1.716,0.7517,0.8872,1,1,0.773,0.879,50,47,3,7,,,3.128,2.127,3,left,left,0.568693572,0.783704114,0.180850715,1.052017812,7,Free,"Correct, no change",1.35037054,1.001,1.025243766,3.128,2.127,,,0.1355,526,902,0.526,0.902,4
7,22,0,1.351,3.37,0.9772,1.0103,1,1,0.788,0.894,50,42,8,13,,,2.978,2.139,8,left,left,1.432335585,1.46770969,1.849959394,1.648330637,7,Free,"Correct, no change",2.548720303,0.839,0.966491171,2.978,2.139,,,0.0331,762,818,0.762,0.818,4
7,24,0,1.141,1.863,0.963,0.9945,1,1,0.989,0.699,57,50,7,9,,,3.142,2.698,7,left,left,1.377038049,1.405516113,1.252280205,1.449136602,7,Free,"Correct, no change",1.41385412,0.444,0.582229457,3.142,2.698,,,0.0315,768,818,0.768,0.818,11
7,25,0,2.644,2.35,0.0582,0.6903,0,1,2.432,0.89,43,50,7,6,,,3.274,1.931,-7,left,right,-2.146427506,0.208092936,1.252280205,-1.339579883,7,Free,Incorrect to correct,0.562704483,1.343,1.456789661,3.274,1.931,,,0.6321,704,816,0.704,0.816,11
7,27,0,1.771,1.736,0.578,0.742,1,1,0.533,1.015,50,42,8,4,,,1.808,2.175,8,left,left,-0.12222614,0.411599768,1.849959394,1.648330637,5,Free,"Correct, no change",-0.004728609,-0.367,-0.206723074,1.808,2.175,,,0.164,860,729,0.86,0.729,9
7,29,0,1.599,1.792,0.7702,0.8382,1,1,0.51,0.974,43,50,7,2,,,0.68,2.281,-7,right,right,0.626237697,0.790272055,1.252280205,-1.339579883,5,Free,"Correct, no change",-0.572161701,-1.601,-1.407176123,2.281,0.68,,,0.068,496,762,0.496,0.762,4
7,32,0,1.588,1.791,0.9653,0.9883,1,1,0.787,0.657,57,50,7,9,,,1.392,1.827,7,left,left,1.385994692,1.381111038,1.252280205,1.449136602,5,Free,"Correct, no change",1.41385412,-0.435,-0.272874457,1.392,1.827,,,0.023,519,1098,0.519,1.098,3
7,33,0,3.842,3.154,0.261,0.5112,1,1,1.349,0.533,50,57,7,6,,,1.728,2.559,-7,right,right,-1.356685226,-0.496898815,1.252280205,-1.339579883,5,Free,"Correct, no change",0.562704483,-0.831,-0.658108985,2.559,1.728,,,0.2502,729,762,0.729,0.762,8
7,34,0,3.269,1.512,0.5992,0.3025,0,0,0.709,0.819,50,44,6,6,,,2.121,1.522,6,right,right,-0.039669255,-1.318405117,0.654601016,1.249942567,5,Free,"Incorrect, no change",0.562704483,0.599,0.733015699,1.522,2.121,,,-0.2967,860,736,0.86,0.736,6
7,35,0,1.376,1.792,0.6787,0.8538,1,1,0.525,0.354,43,50,7,9,,,1.482,3.343,-7,right,right,0.269919065,0.851678371,1.252280205,-1.339579883,7,Free,"Correct, no change",1.41385412,-1.861,-1.660107884,3.343,1.482,,,0.1751,866,753,0.866,0.753,3
7,36,0,2.196,1.071,0.9222,0.8068,1,1,0.747,0.363,43,50,7,9,,,1.722,3.456,-7,right,right,1.218154987,0.666672161,1.252280205,-1.339579883,7,Free,"Correct, no change",1.41385412,-1.734,-1.536560447,3.456,1.722,,,-0.1154,848,710,0.848,0.71,9
7,37,0,1.69,2.756,0.7592,0.4558,1,1,0.859,1.045,50,56,6,8,,,1.436,4.659,-6,right,right,0.583401577,-0.714969966,0.654601016,-1.140385848,7,Free,"Correct, no change",1.130137574,-3.223,-2.985081185,4.659,1.436,,,-0.3034,522,1064,0.522,1.064,14
7,39,0,2.051,1.394,0.7492,0.8373,1,1,0.83,0.915,45,50,5,5,,,0.918,1.426,-5,right,right,0.54445965,0.786729383,0.056921827,-0.941191814,5,Free,"Correct, no change",0.278987937,-0.508,-0.343889913,1.426,0.918,,,0.0881,840,782,0.84,0.782,1
7,40,0,1.43,2.422,0.842,0.4853,0,0,0.786,0.754,50,55,5,9,,,3.52,2.433,-5,left,left,0.905840732,-0.598849046,0.056921827,-0.941191814,7,Free,"Incorrect, no change",1.41385412,1.087,1.207749158,3.52,2.433,,,-0.3567,731,842,0.731,0.842,12
7,41,0,4.081,3.015,0.7362,0.459,1,1,1.083,0.475,56,50,6,3,,,1.754,2.528,6,left,left,0.493835145,-0.702373798,0.654601016,1.249942567,5,Free,"Correct, no change",-0.288445155,-0.774,-0.602658561,1.754,2.528,,,-0.2772,962,602,0.962,0.602,13
7,43,1,1.441,1.822,0.78,0.8222,1,1,0.788,0.501,45,50,5,3,,,1.32,1.007,-5,right,right,0.664400785,0.727291217,0.056921827,-0.941191814,5,Free,"Correct, no change",-0.288445155,0.313,0.454790762,1.007,1.32,,,0.0422,868,766,0.868,0.766,5
7,44,1,5.146,1.54,0.6325,0.5005,1,1,0.461,0.57,45,50,5,8,,,2.09,2.201,-5,right,right,0.090007362,-0.539017251,0.056921827,-0.941191814,5,Free,"Correct, no change",1.130137574,-0.111,0.042317429,2.201,2.09,,,-0.132,703,916,0.703,0.916,7
7,47,1,1.957,3.037,0.5617,0.6112,1,1,0.787,0.259,47,50,3,7,,,2.908,1.07,-3,right,right,-0.185701481,-0.10326858,-1.13843655,-0.542803744,5,Free,"Correct, no change",0.846421028,1.838,1.938332821,1.07,2.908,,,0.0495,882,682,0.882,0.682,7
7,48,1,3.316,2.67,0.4142,0.1853,0,0,0.882,0.856,50,47,3,5,,,1.069,2.496,3,right,right,-0.760094904,-1.779739753,-1.13843655,0.652360463,5,Free,"Incorrect, no change",0.278987937,-1.427,-1.237906406,2.496,1.069,,,-0.2289,757,688,0.757,0.688,7
7,49,1,1.798,1.559,0.4115,0.4313,1,1,0.985,1.472,46,50,4,10,,,2.552,2.892,-4,right,right,-0.770609225,-0.811409374,-0.540757361,-0.741997779,7,Free,"Correct, no change",1.697570666,-0.34,-0.180457083,2.892,2.552,,,0.0198,838,747,0.838,0.747,7
7,50,1,1.526,2.491,0.607,0.3695,1,1,0.988,0.99,50,46,4,7,,,1.1,2.636,4,left,left,-0.009294552,-1.054672859,-0.540757361,0.851554498,5,Free,"Correct, no change",0.846421028,-1.536,-1.343943183,1.1,2.636,,,-0.2375,646,942,0.646,0.942,7
7,51,1,2.066,2.145,0.4348,0.4932,0,1,1.362,0.539,47,50,3,7,,,1.81,3.762,-3,left,right,-0.679874535,-0.567752258,-1.13843655,-0.542803744,7,Free,Incorrect to correct,0.846421028,-1.952,-1.748634,1.81,3.762,,,0.0584,781,888,0.781,0.888,14
7,54,1,1.966,1.816,0.4168,0.4598,0,1,0.808,0.601,47,50,3,8,,,1.402,4.425,-3,left,right,-0.749970003,-0.699224756,-1.13843655,-0.542803744,7,Free,Incorrect to correct,1.130137574,-3.023,-2.790518292,1.402,4.425,,,0.043,744,856,0.744,0.856,14
7,55,1,1.598,1.519,0.722,0.3933,1,1,1.812,0.562,50,46,4,8,,,2.546,2.822,4,left,left,0.438537608,-0.960988863,-0.540757361,0.851554498,7,Free,"Correct, no change",1.130137574,-0.276,-0.118196957,2.546,2.822,,,-0.3287,756,766,0.756,0.766,10
7,56,1,1.525,1.968,0.6402,0.7303,0,1,1.147,0.332,50,54,4,9,,,1.816,3.777,-4,left,right,0.119992646,0.365545031,-0.540757361,-0.741997779,7,Free,Incorrect to correct,1.41385412,-1.961,-1.75738933,1.816,3.777,,,0.0901,764,750,0.764,0.75,8
7,57,1,3.684,2.516,0.6723,0.6382,1,1,1.184,0.341,45,50,5,5,,,1.794,2.515,-5,right,right,0.244996231,0.003011584,0.056921827,-0.941191814,5,Free,"Correct, no change",0.278987937,-0.721,-0.551099394,2.515,1.794,,,-0.0341,510,911,0.51,0.911,11
7,60,1,2.577,1.704,0.6892,0.7035,0,1,1.045,0.739,55,50,5,8,,,2.157,3.697,5,right,left,0.310808088,0.260052127,0.056921827,1.050748533,7,Free,Incorrect to correct,1.130137574,-1.54,-1.347834441,3.697,2.157,,,0.0143,866,748,0.866,0.748,13
7,61,1,2.205,2.11,0.6942,0.5832,0,1,0.95,0.546,56,50,6,6,,,2.976,2.128,6,right,left,0.330279051,-0.213485046,0.654601016,1.249942567,7,Free,Incorrect to correct,0.562704483,0.848,0.975246501,2.128,2.976,,,-0.111,886,736,0.886,0.736,10
7,63,2,1.851,1.695,0.8713,0.9965,1,1,0.556,0.734,58,50,8,8,,,1.774,1.9,8,left,left,1.019940579,1.413388718,1.849959394,1.648330637,5,Free,"Correct, no change",1.130137574,-0.126,0.027725212,1.774,1.9,,,0.1252,520,1062,0.52,1.062,5
7,64,2,1.702,1.863,0.5985,0.7972,1,1,1.022,0.599,42,50,8,11,,,1.424,4.256,-8,right,right,-0.04239519,0.628883658,1.849959394,-1.538773918,7,Free,"Correct, no change",1.981287212,-2.832,-2.604710729,4.256,1.424,,,0.1987,756,800,0.756,0.8,10
7,65,2,3.352,1.804,0.6733,0.6852,0,1,0.665,1.317,57,50,7,9,,,3.174,2.558,7,right,left,0.248890424,0.188017794,1.252280205,1.449136602,7,Free,Incorrect to correct,1.41385412,0.616,0.749553545,2.558,3.174,,,0.0119,828,816,0.828,0.816,16
7,66,2,1.39,1.769,0.5817,0.7065,1,1,1.226,0.569,42,50,8,6,,,1.689,2.854,-8,right,right,-0.107817627,0.271861035,1.849959394,-1.538773918,7,Free,"Correct, no change",0.562704483,-1.165,-0.983029017,2.854,1.689,,,0.1248,866,763,0.866,0.763,5
7,68,2,1.811,1.698,0.657,0.9872,1,1,0.613,0.266,43,50,7,8,,,1.684,2.04,-7,right,right,0.185415083,1.376781106,1.252280205,-1.339579883,5,Free,"Correct, no change",1.130137574,-0.356,-0.196022115,2.04,1.684,,,0.3302,730,830,0.73,0.83,3
7,69,2,1.282,1.706,0.9638,1.0028,1,1,1.101,1.433,57,50,7,8,,,2.098,1.743,7,left,left,1.380153403,1.438187422,1.252280205,1.449136602,5,Free,"Correct, no change",1.130137574,0.355,0.49564897,2.098,1.743,,,0.039,814,1123,0.814,1.123,4
7,70,2,2.453,1.584,0.6855,0.7315,1,1,1.136,0.663,50,44,6,5,,,2.182,2.206,6,left,left,0.296399575,0.370268593,0.654601016,1.249942567,5,Free,"Correct, no change",0.278987937,-0.024,0.126952288,2.182,2.206,,,0.046,910,764,0.91,0.764,10
7,71,2,1.653,1.447,0.853,1.0088,1,1,0.33,0.719,50,44,6,8,,,1.872,2.336,6,left,left,0.948676852,1.461805236,0.654601016,1.249942567,5,Free,"Correct, no change",1.130137574,-0.464,-0.301086077,1.872,2.336,,,0.1558,763,812,0.763,0.812,6
7,73,2,1.289,1.5,0.9237,0.6832,1,1,0.237,0.329,50,44,6,9,,,2.269,2.804,6,left,left,1.223996276,0.18014519,0.654601016,1.249942567,7,Free,"Correct, no change",1.41385412,-0.535,-0.370155904,2.269,2.804,,,-0.2405,594,978,0.594,0.978,10
7,74,2,1.719,2.273,0.9638,0.8303,1,1,0.798,3.585,44,50,6,2,,,1.044,3.518,-6,right,right,1.380153403,0.759175266,0.654601016,-1.140385848,5,Free,"Correct, no change",-0.572161701,-2.474,-2.256443151,3.518,1.044,,,-0.1335,834,746,0.834,0.746,13
7,75,2,1.923,2.122,0.7168,0.7573,1,0,0.687,0.702,55,50,5,7,,,1.994,2.128,5,left,right,0.418287806,0.471825194,0.056921827,1.050748533,5,Free,Correct to incorrect,0.846421028,-0.134,0.019942697,1.994,2.128,,,0.0405,886,741,0.886,0.741,6
7,76,2,1.634,1.693,0.7743,0.8758,1,1,0.77,1.386,50,55,5,13,,,3.608,2.139,-5,right,right,0.642203887,0.938277023,0.056921827,-0.941191814,7,Free,"Correct, no change",2.548720303,1.469,1.579364283,2.139,3.608,,,0.1015,904,719,0.904,0.719,7
7,77,2,2.018,2.729,0.7293,0.779,1,0,1.15,0.765,54,50,4,10,,,3.389,2.558,4,left,right,0.466965215,0.557242955,-0.540757361,0.851554498,7,Free,Correct to incorrect,1.697570666,0.831,0.958708655,3.389,2.558,,,0.0497,846,736,0.846,0.736,9
7,80,2,1.345,1.87,0.712,0.874,1,1,0.51,0.753,46,50,4,7,,,1.666,2.484,-4,right,right,0.399595681,0.931191679,-0.540757361,-0.741997779,5,Free,"Correct, no change",0.846421028,-0.818,-0.645462397,2.484,1.666,,,0.162,732,826,0.732,0.826,7
7,83,2,3.693,2.222,0.576,0.6298,0,1,0.368,1.107,50,46,4,8,,,2.839,2.827,4,right,left,-0.130014526,-0.030053356,-0.540757361,0.851554498,7,Free,Incorrect to correct,1.130137574,0.012,0.161973608,2.827,2.839,,,0.0538,890,789,0.89,0.789,9
7,85,3,1.551,1.31,0.9382,0.8783,1,1,1.242,0.346,50,55,5,9,,,1.978,1.559,-5,right,right,1.28046207,0.948117779,0.056921827,-0.941191814,5,Free,"Correct, no change",1.41385412,0.419,0.557909095,1.559,1.978,,,-0.0599,804,808,0.804,0.808,0
7,86,3,1.651,1.912,0.3005,0.512,1,1,1.172,0.698,50,46,4,8,,,2.3,3.503,4,left,left,-1.202864614,-0.493749773,-0.540757361,0.851554498,7,Free,"Correct, no change",1.130137574,-1.203,-1.019995966,2.3,3.503,,,0.2115,886,746,0.886,0.746,13
7,88,3,1.951,1.983,0.9087,0.619,1,1,1.034,2.884,50,45,5,11,,,3.157,2.482,5,left,left,1.165583385,-0.072565422,0.056921827,1.050748533,7,Free,"Correct, no change",1.981287212,0.675,0.806949598,3.157,2.482,,,-0.2897,926,681,0.926,0.681,10
7,89,3,2.663,1.311,0.5295,0.4442,1,1,0.609,0.573,55,50,5,7,,,1.804,2.056,5,left,left,-0.311094486,-0.760631073,0.056921827,1.050748533,5,Free,"Correct, no change",0.846421028,-0.252,-0.09484941,1.804,2.056,,,-0.0853,884,758,0.884,0.758,7
7,90,3,1.913,1.589,0.5513,0.5403,0,0,0.407,0.364,54,50,4,5,,,3.131,2.46,4,right,right,-0.226201085,-0.382352417,-0.540757361,0.851554498,7,Free,"Incorrect, no change",0.278987937,0.671,0.803058341,2.46,3.131,,,-0.011,870,764,0.87,0.764,10
7,91,3,1.603,2.277,0.193,0.23,0,0,1.054,0.975,50,45,5,7,,,2.286,2.092,5,right,right,-1.62149033,-1.603787038,0.056921827,1.050748533,7,Free,"Incorrect, no change",0.846421028,0.194,0.339025841,2.092,2.286,,,0.037,894,672,0.894,0.672,7
7,92,3,1.745,1.948,0.9318,0.778,1,1,1.178,0.419,50,56,6,6,,,2.37,1.73,-6,right,right,1.255539237,0.553306653,0.654601016,-1.140385848,5,Free,"Correct, no change",0.562704483,0.64,0.772901092,1.73,2.37,,,-0.1538,719,902,0.719,0.902,4
7,96,3,1.553,2.119,0.109,0.2963,1,1,3.932,0.435,46,50,4,10,,,2.314,1.386,-4,right,right,-1.948602516,-1.342810191,-0.540757361,-0.741997779,5,Free,"Correct, no change",1.697570666,0.928,1.053071658,1.386,2.314,,,0.1873,638,922,0.638,0.922,1
7,97,3,1.829,1.82,0.0378,0.2843,0,0,0.654,1.366,50,46,4,11,,,2.418,2.308,4,right,right,-2.225869037,-1.39004582,-0.540757361,0.851554498,7,Free,"Incorrect, no change",1.981287212,0.11,0.257309426,2.308,2.418,,,0.2465,864,768,0.864,0.768,4
7,99,3,1.874,1.568,0.2835,0.4408,1,1,1.276,1.134,50,45,5,9,,,2.376,1.635,5,left,left,-1.26906589,-0.774014501,0.056921827,1.050748533,5,Free,"Correct, no change",1.41385412,0.741,0.871155353,2.376,1.635,,,0.1573,736,886,0.736,0.886,3
7,101,3,2.64,2.048,0.31,0.3808,1,1,0.777,0.961,50,54,4,8,,,1.488,2.194,-4,right,right,-1.165869784,-1.010192642,-0.540757361,-0.741997779,5,Free,"Correct, no change",1.130137574,-0.706,-0.536507177,2.194,1.488,,,0.0708,648,850,0.648,0.85,4
7,102,3,3.311,3.55,0.4237,0.8388,1,1,0.919,0.509,50,53,3,8,,,1.596,2.574,-3,right,right,-0.723100074,0.792633836,-1.13843655,-0.542803744,7,Free,"Correct, no change",1.130137574,-0.978,-0.801112712,2.574,1.596,,,0.4151,736,708,0.736,0.708,4
7,103,3,2.336,1.588,0.2828,0.2887,0,1,0.542,0.949,50,53,3,8,,,2.887,2.046,-3,left,right,-1.271791825,-1.372726089,-1.13843655,-0.542803744,7,Free,Incorrect to correct,1.130137574,0.841,0.9684368,2.887,2.046,,,0.0059,772,886,0.772,0.886,5
7,105,4,1.474,1.677,0.714,0.3467,0,0,0.636,0.826,50,54,4,5,,,2.206,1.694,-4,left,left,0.407384067,-1.144420553,-0.540757361,-0.741997779,5,Free,"Incorrect, no change",0.278987937,0.512,0.648380841,2.206,1.694,,,-0.3673,750,868,0.75,0.868,8
7,107,4,2.005,1.555,0.8863,0.9787,1,1,4.566,0.488,50,55,5,7,,,1.786,3.561,-5,right,right,1.078353469,1.343322536,0.056921827,-0.941191814,7,Free,"Correct, no change",0.846421028,-1.775,-1.57644584,3.561,1.786,,,0.0924,866,746,0.866,0.746,6
7,108,4,1.618,5.632,0.4147,0.981,0,0,0.8,0.722,55,50,5,11,,,2.57,2.758,5,right,right,-0.758147808,1.352376031,0.056921827,1.050748533,7,Free,"Incorrect, no change",1.981287212,-0.188,-0.032589285,2.758,2.57,,,0.5663,996,574,0.996,0.574,5
7,109,4,2.134,1.493,0.485,0.5212,1,1,0.871,0.698,50,56,6,8,,,1.85,2.176,-6,right,right,-0.484386061,-0.457535792,0.654601016,-1.140385848,5,Free,"Correct, no change",1.130137574,-0.326,-0.166837681,2.176,1.85,,,0.0362,884,726,0.884,0.726,4
7,110,4,1.909,2.181,0.6538,0.5042,1,1,0.506,0.821,45,50,5,12,,,2.702,3.226,-5,right,right,0.172953666,-0.524452932,0.056921827,-0.941191814,7,Free,"Correct, no change",2.265003757,-0.524,-0.359454945,3.226,2.702,,,-0.1496,868,778,0.868,0.778,4
7,111,4,1.531,1.984,0.4487,0.408,1,1,2.114,0.282,45,50,5,6,,,2.038,2.097,-5,right,right,-0.625745256,-0.903125218,0.056921827,-0.941191814,5,Free,"Correct, no change",0.562704483,-0.059,0.092903781,2.097,2.038,,,-0.0407,882,747,0.882,0.747,5
7,112,4,1.514,2.978,0.4733,0.501,1,1,1.658,0.568,50,54,4,9,,,2.494,2.707,-4,right,right,-0.529948116,-0.537049099,-0.540757361,-0.741997779,7,Free,"Correct, no change",1.41385412,-0.213,-0.056909646,2.707,2.494,,,0.0277,896,731,0.896,0.731,8
7,113,4,3.318,1.486,0.3108,0.7132,0,1,0.803,0.341,46,50,4,5,,,2.315,2.068,-4,left,right,-1.16275443,0.29823426,-0.540757361,-0.741997779,5,Free,Incorrect to correct,0.278987937,0.247,0.390585008,2.315,2.068,,,0.4024,763,884,0.763,0.884,10
7,115,4,2.756,2.005,0.482,0.564,0,1,0.975,0.432,55,50,5,5,,,1.382,2.546,5,right,left,-0.496068639,-0.289062051,0.056921827,1.050748533,5,Free,Incorrect to correct,0.278987937,-1.164,-0.982056202,2.546,1.382,,,0.082,908,660,0.908,0.66,8
7,118,4,1.515,2.518,0.9337,0.6158,1,1,0.321,1.308,50,55,5,5,,,1.423,0.784,-5,right,right,1.262938203,-0.085161589,0.056921827,-0.941191814,5,Free,"Correct, no change",0.278987937,0.639,0.771928278,0.784,1.423,,,-0.3179,876,764,0.876,0.764,2
7,119,4,1.592,2.065,0.7218,0.4732,1,1,0.447,0.577,45,50,5,9,,,3.108,2.891,-5,right,right,0.43775877,-0.646478305,0.056921827,-0.941191814,7,Free,"Correct, no change",1.41385412,0.217,0.361400574,2.891,3.108,,,-0.2486,920,686,0.92,0.686,12
7,121,4,2.095,2.24,0.3365,0.6103,1,0,1.933,2.17,50,46,4,10,,,1.732,3.66,4,left,right,-1.062673677,-0.106811252,-0.540757361,0.851554498,7,Free,Correct to incorrect,1.697570666,-1.928,-1.725286453,1.732,3.66,,,0.2738,571,774,0.571,0.774,10
7,123,4,1.403,3.017,0.1427,0.3385,1,1,1.338,1.353,53,50,3,9,,,3.314,2.182,3,left,left,-1.817368222,-1.176698232,-1.13843655,0.652360463,7,Free,"Correct, no change",1.41385412,1.132,1.251525809,3.314,2.182,,,0.1958,904,692,0.904,0.692,9
7,125,4,1.746,2.831,0.2743,0.204,0,0,0.645,0.715,50,52,2,4,,,1.928,2.27,-2,left,left,-1.304892463,-1.706130899,-1.736115739,-0.34360971,5,Free,"Incorrect, no change",-0.004728609,-0.342,-0.182402712,1.928,2.27,,,-0.0703,778,780,0.778,0.78,9
7,126,5,1.26,1.7,0.3755,0.2852,1,1,1.044,0.616,47,50,3,5,,,2.114,2.262,-3,right,right,-0.910800162,-1.386503148,-1.13843655,-0.542803744,5,Free,"Correct, no change",0.278987937,-0.148,0.006323294,2.262,2.114,,,-0.0903,725,858,0.725,0.858,9
7,127,5,2.055,1.903,0.0977,0.5717,1,1,0.31,0.521,50,47,3,9,,,2.971,2.644,3,left,left,-1.992606894,-0.258752523,-1.13843655,0.652360463,7,Free,"Correct, no change",1.41385412,0.327,0.468410165,2.971,2.644,,,0.474,752,864,0.752,0.864,7
7,128,5,1.91,2.559,0.5958,0.3262,1,1,0.764,0.898,50,48,2,5,,,1.828,2.13,2,left,left,-0.05290951,-1.225114751,-1.736115739,0.453166429,5,Free,"Correct, no change",0.278987937,-0.302,-0.143490134,1.828,2.13,,,-0.2696,918,717,0.918,0.717,9
7,129,5,1.761,1.788,0.6262,0.7668,1,1,1.177,2.765,50,52,2,7,,,3.382,2.783,-2,right,right,0.065473948,0.509220067,-1.736115739,-0.34360971,7,Free,"Correct, no change",0.846421028,0.599,0.733015699,2.783,3.382,,,0.1406,862,726,0.862,0.726,13
7,131,5,2.326,1.497,0.2687,0.207,1,1,0.568,0.255,50,51,1,4,,,1.532,2.895,-1,right,right,-1.326699942,-1.694321992,-2.333794927,-0.144415675,5,Free,"Correct, no change",-0.004728609,-1.363,-1.175646281,2.895,1.532,,,-0.0617,968,579,0.968,0.579,12
7,133,5,2.48,3.265,0.439,0.1747,1,1,1.454,1.841,51,50,1,2,,,3.343,0.85,1,left,left,-0.663518926,-1.821464558,-2.333794927,0.253972394,5,Free,"Correct, no change",-0.572161701,2.493,2.575526295,3.343,0.85,,,-0.2643,731,890,0.731,0.89,12
7,134,5,1.539,1.874,0.2823,0.0793,0,0,1.087,1.112,50,51,1,12,,,2.813,2.882,-1,left,left,-1.273738922,-2.196987803,-2.333794927,-0.144415675,7,Free,"Incorrect, no change",2.265003757,-0.069,0.083175637,2.813,2.882,,,-0.203,684,748,0.684,0.748,12
7,135,5,1.616,4.3,0.7965,0.99,1,1,0.838,0.783,48,50,2,8,,,2.55,1.582,-2,right,right,0.728654965,1.387802752,-1.736115739,-0.34360971,5,Free,"Correct, no change",1.130137574,0.968,1.091984237,1.582,2.55,,,0.1935,974,679,0.974,0.679,7
7,136,5,2.214,1.934,0.0253,0.1318,0,1,1.957,1.871,48,50,2,3,,,0.644,0.859,-2,left,right,-2.274546445,-1.990331929,-1.736115739,-0.34360971,5,Free,Incorrect to correct,-0.288445155,-0.215,-0.058855275,0.644,0.859,,,0.1065,692,632,0.692,0.632,2
7,137,5,1.913,1.667,0.1882,0.4567,1,1,2.359,0.439,47,50,3,10,,,2.15,1.969,-3,right,right,-1.640182455,-0.711427294,-1.13843655,-0.542803744,5,Free,"Correct, no change",1.697570666,0.181,0.326379253,1.969,2.15,,,0.2685,716,752,0.716,0.752,4
7,138,5,1.698,1.768,0.6273,0.5073,1,1,0.671,1.006,53,50,3,5,,,2.793,3.423,3,left,left,0.06975756,-0.512250395,-1.13843655,0.652360463,7,Free,"Correct, no change",0.278987937,-0.63,-0.462573278,2.793,3.423,,,-0.12,703,890,0.703,0.89,16
7,141,5,3.531,1.453,0.3938,0.6403,1,1,1.105,0.868,53,50,3,11,,,3.313,2.526,3,left,left,-0.839536436,0.011277819,-1.13843655,0.652360463,7,Free,"Correct, no change",1.981287212,0.787,0.915904818,3.313,2.526,,,0.2465,705,784,0.705,0.784,12
7,143,5,1.448,1.96,0.442,0.5697,0,1,0.938,0.548,47,50,3,4,,,3.115,1.034,-3,left,right,-0.651836347,-0.266625128,-1.13843655,-0.542803744,5,Free,Incorrect to correct,-0.004728609,2.081,2.174726736,3.115,1.034,,,0.1277,778,792,0.778,0.792,8
7,146,5,1.636,1.731,0.7517,0.8033,1,1,0.5,0.251,50,55,5,8,,,3.196,2.484,-5,right,right,0.554195132,0.652895103,0.056921827,-0.941191814,7,Free,"Correct, no change",1.130137574,0.712,0.842943734,2.484,3.196,,,0.0516,966,655,0.966,0.655,11
7,147,6,1.578,2.657,0.3933,0.6557,1,0,1.019,0.423,50,46,4,7,,,3.023,2.996,4,left,right,-0.841483532,0.071896875,-0.540757361,0.851554498,7,Free,Correct to incorrect,0.846421028,0.027,0.176565825,3.023,2.996,,,0.2624,878,746,0.878,0.746,15
7,148,6,1.279,1.524,0.2287,0.1983,0,1,0.795,0.706,50,46,4,11,,,2.805,2.718,4,right,left,-1.48246765,-1.728567822,-0.540757361,0.851554498,7,Free,Incorrect to correct,1.981287212,0.087,0.234934693,2.718,2.805,,,-0.0304,914,780,0.914,0.78,5
7,150,6,2.638,1.31,0.3967,0.3732,1,1,0.925,0.667,55,50,5,8,,,2.148,2.871,5,left,left,-0.828243277,-1.04010854,0.056921827,1.050748533,7,Free,"Correct, no change",1.130137574,-0.723,-0.553045023,2.148,2.871,,,-0.0235,922,755,0.922,0.755,9
7,152,6,1.622,2.49,0.9772,0.8485,1,1,0.53,0.609,50,55,5,7,,,2.038,3.86,-5,right,right,1.432335585,0.830815969,0.056921827,-0.941191814,7,Free,"Correct, no change",0.846421028,-1.822,-1.62216812,3.86,2.038,,,-0.1287,900,623,0.9,0.623,11
7,153,6,1.302,2.424,0.7488,0.4977,1,0,0.895,0.567,55,50,5,9,,,2.538,3.259,5,left,right,0.542901973,-0.550038897,0.056921827,1.050748533,7,Free,Correct to incorrect,1.41385412,-0.721,-0.551099394,2.538,3.259,,,-0.2511,771,870,0.771,0.87,7
7,154,6,1.372,1.93,0.7053,0.8947,1,1,0.236,0.244,50,54,4,9,,,2.597,1.535,-4,right,right,0.37350459,1.012673138,-0.540757361,-0.741997779,5,Free,"Correct, no change",1.41385412,1.062,1.183428796,1.535,2.597,,,0.1894,898,740,0.898,0.74,7
7,156,6,1.943,1.925,0.2637,0.9555,1,1,1.248,0.622,47,50,3,7,,,1.779,1.968,-3,right,right,-1.346170906,1.252000321,-1.13843655,-0.542803744,5,Free,"Correct, no change",0.846421028,-0.189,-0.033562099,1.968,1.779,,,0.6918,870,734,0.87,0.734,2
7,159,6,7.214,1.637,0.7617,0.7642,0,1,1.424,0.236,46,50,4,5,,,3.125,2.872,-4,left,right,0.593137059,0.49898568,-0.540757361,-0.741997779,7,Free,Incorrect to correct,0.278987937,0.253,0.396421894,3.125,2.872,,,0.0025,759,910,0.759,0.91,20
7,160,6,2.057,1.383,0.6192,0.49,1,1,0.312,0.496,55,50,5,8,,,3.182,2.554,5,left,left,0.038214599,-0.580348425,0.056921827,1.050748533,7,Free,"Correct, no change",1.130137574,0.628,0.761227319,3.182,2.554,,,-0.1292,748,872,0.748,0.872,11
7,162,6,1.344,1.725,0.9473,0.8633,1,1,1.037,0.581,50,54,4,4,,,4.24,1.912,-4,right,right,1.315899224,0.889073244,-0.540757361,-0.741997779,7,Free,"Correct, no change",-0.004728609,2.328,2.415011908,1.912,4.24,,,-0.084,886,769,0.886,0.769,11
7,163,6,1.342,1.369,0.9498,0.9868,1,1,1.623,0.477,46,50,4,2,,,1.949,2.336,-4,right,right,1.325634705,1.375206585,-0.540757361,-0.741997779,5,Free,"Correct, no change",-0.572161701,-0.387,-0.226179363,2.336,1.949,,,0.037,962,658,0.962,0.658,14
7,164,6,1.525,1.91,0.4765,0.497,0,1,0.521,0.43,53,50,3,7,,,1.805,1.986,3,right,left,-0.517486699,-0.552794309,-1.13843655,0.652360463,5,Free,Incorrect to correct,0.846421028,-0.181,-0.025779583,1.986,1.805,,,0.0205,918,738,0.918,0.738,6
7,165,6,1.816,2.776,0.0955,0.3957,0,0,0.754,0.412,54,50,4,5,,,2.803,1.616,4,right,right,-2.001174118,-0.951541737,-0.540757361,0.851554498,5,Free,"Incorrect, no change",0.278987937,1.187,1.305030604,1.616,2.803,,,0.3002,876,738,0.876,0.738,10
7,166,6,3.072,1.56,0.3293,0.2113,0,0,1.134,0.937,55,50,5,5,,,1.716,2.153,5,right,right,-1.090711865,-1.677395892,0.056921827,1.050748533,5,Free,"Incorrect, no change",0.278987937,-0.437,-0.274820086,2.153,1.716,,,-0.118,862,727,0.862,0.727,8
7,167,6,2.173,3.667,0.47,0.5212,1,1,0.637,0.653,44,50,6,6,,,1.756,2.583,-6,right,right,-0.542798952,-0.457535792,0.654601016,-1.140385848,5,Free,"Correct, no change",0.562704483,-0.827,-0.654217727,2.583,1.756,,,0.0512,746,900,0.746,0.9,8
7,170,7,1.633,3.69,0.2812,0.3455,0,0,0.516,0.934,56,50,6,8,,,3.04,2.554,6,right,right,-1.278022534,-1.149144116,0.654601016,1.249942567,7,Free,"Incorrect, no change",1.130137574,0.486,0.623087665,2.554,3.04,,,0.0643,940,747,0.94,0.747,8
7,171,7,1.281,1.516,0.9797,0.9705,1,1,1.19,1.12,50,57,7,16,,,2.65,2.925,-7,right,right,1.442071067,1.311044856,1.252280205,-1.339579883,7,Free,"Correct, no change",3.399869941,-0.275,-0.117224143,2.925,2.65,,,-0.0092,834,753,0.834,0.753,7
7,172,7,1.491,2.423,0.7422,0.8433,1,1,1.134,0.343,43,50,7,13,,,2.77,2.806,-7,right,right,0.517200301,0.810347197,1.252280205,-1.339579883,7,Free,"Correct, no change",2.548720303,-0.036,0.115278514,2.806,2.77,,,0.1011,922,632,0.922,0.632,5
7,174,7,1.456,1.712,0.354,0.5702,0,1,0.723,0.612,50,44,6,15,,,2.513,2.662,6,right,left,-0.994525305,-0.264656976,0.654601016,1.249942567,7,Free,Incorrect to correct,3.116153395,-0.149,0.00535048,2.662,2.513,,,0.2162,842,776,0.842,0.776,5
7,176,7,3.375,1.339,0.1985,1,0,1,0.591,0.232,43,50,7,9,,,2.056,1.672,-7,left,right,-1.60007227,1.427165776,1.252280205,-1.339579883,5,Free,Incorrect to correct,1.41385412,0.384,0.523860589,2.056,1.672,,,0.8015,742,890,0.742,0.89,2
7,178,7,1.141,1.922,0.9895,1.0092,1,1,1.945,2.386,50,42,8,9,,,1.941,3.67,8,left,left,1.480234156,1.463379757,1.849959394,1.648330637,7,Free,"Correct, no change",1.41385412,-1.729,-1.531696375,1.941,3.67,,,0.0197,734,864,0.734,0.864,14
7,179,7,1.275,1.68,0.9888,1.0148,1,1,2.46,0.475,50,57,7,6,,,2.089,2.05,-7,right,right,1.477508221,1.485423051,1.252280205,-1.339579883,5,Free,"Correct, no change",0.562704483,0.039,0.188239599,2.05,2.089,,,0.026,814,790,0.814,0.79,6
7,180,7,1.61,1.487,0.9895,1.0053,1,1,0.477,7.318,57,50,7,3,,,2.189,1.924,7,left,left,1.480234156,1.448028178,1.252280205,1.449136602,5,Free,"Correct, no change",-0.288445155,0.265,0.408095668,2.189,1.924,,,0.0158,773,842,0.773,0.842,10
7,181,7,1.811,1.46,0.9775,0.9967,1,1,0.989,0.22,50,56,6,11,,,1.856,1.978,-6,right,right,1.433503843,1.414175978,0.654601016,-1.140385848,5,Free,"Correct, no change",1.981287212,-0.122,0.03161647,1.978,1.856,,,0.0192,898,755,0.898,0.755,2
7,183,7,1.477,2.432,0.686,0.7293,1,0,0.223,0.561,45,50,5,12,,,2.932,2.522,-5,right,left,0.298346671,0.361608728,0.056921827,-0.941191814,7,Free,Correct to incorrect,2.265003757,0.41,0.549153765,2.522,2.932,,,0.0433,880,698,0.88,0.698,7
7,184,7,1.502,1.492,0.988,1.0003,1,1,0.988,5.014,45,50,5,7,,,2.506,1.359,-5,right,right,1.474392867,1.428346666,0.056921827,-0.941191814,5,Free,"Correct, no change",0.846421028,1.147,1.266118026,1.359,2.506,,,0.0123,768,745,0.768,0.745,8
7,186,7,2.529,1.637,0.8042,0.8718,1,0,1.387,0.65,54,50,4,10,,,2.089,1.994,4,left,right,0.758640248,0.922531814,-0.540757361,0.851554498,5,Free,Correct to incorrect,1.697570666,0.095,0.242717209,2.089,1.994,,,0.0676,920,664,0.92,0.664,5
7,188,7,1.868,1.419,0.4723,0.4817,0,1,0.768,0.294,47,50,3,7,,,2.26,1.983,-3,left,right,-0.533842309,-0.613019735,-1.13843655,-0.542803744,5,Free,Incorrect to correct,0.846421028,0.277,0.419769441,2.26,1.983,,,0.0094,787,890,0.787,0.89,7
7,189,8,1.482,1.406,0.8385,0.857,1,1,0.574,0.522,50,54,4,11,,,2.787,3.039,-4,right,right,0.892211058,0.864274539,-0.540757361,-0.741997779,7,Free,"Correct, no change",1.981287212,-0.252,-0.09484941,3.039,2.787,,,0.0185,906,681,0.906,0.681,10
7,190,8,1.552,2.04,0.4363,0.3755,1,0,1.056,0.499,54,50,4,10,,,2.606,1.508,4,left,right,-0.674033246,-1.031055045,-0.540757361,0.851554498,5,Free,Correct to incorrect,1.697570666,1.098,1.218450117,2.606,1.508,,,-0.0608,856,769,0.856,0.769,6
7,191,8,2.35,1.234,0.4363,0.4028,0,0,1.353,1.119,53,50,3,9,,,3.182,2.282,3,right,right,-0.674033246,-0.923593991,-1.13843655,0.652360463,7,Free,"Incorrect, no change",1.41385412,0.9,1.025832853,2.282,3.182,,,-0.0335,942,727,0.942,0.727,7
7,192,8,1.673,1.423,0.4313,0.3295,0,0,0.879,1.025,50,46,4,7,,,1.91,1.708,4,right,right,-0.693504209,-1.212124953,-0.540757361,0.851554498,5,Free,"Incorrect, no change",0.846421028,0.202,0.346808357,1.708,1.91,,,-0.1018,1148,380,1.148,0.38,2
7,196,8,1.411,1.662,0.9393,0.9223,1,1,1.525,0.529,43,50,7,12,,,1.747,3.232,-7,right,right,1.284745682,1.121315083,1.252280205,-1.339579883,7,Free,"Correct, no change",2.265003757,-1.485,-1.294329645,3.232,1.747,,,-0.017,734,826,0.734,0.826,9
7,197,8,1.613,1.909,0.8177,0.9022,1,1,0.277,0.747,44,50,6,14,,,2.152,3.147,-6,right,right,0.81121185,1.042195405,0.654601016,-1.140385848,7,Free,"Correct, no change",2.832436849,-0.995,-0.817650558,3.147,2.152,,,0.0845,752,916,0.752,0.916,3
7,198,8,1.491,1.546,0.2787,0.0875,0,0,0.532,0.973,56,50,6,9,,,2.148,2.068,6,right,right,-1.287758015,-2.164710123,0.654601016,1.249942567,5,Free,"Incorrect, no change",1.41385412,0.08,0.228124992,2.068,2.148,,,-0.1912,894,734,0.894,0.734,2
7,200,8,1.219,1.472,0.8815,0.9215,1,1,0.463,0.512,43,50,7,6,,,1.736,1.929,-7,right,right,1.059661344,1.118166041,1.252280205,-1.339579883,5,Free,"Correct, no change",0.562704483,-0.193,-0.037453357,1.929,1.736,,,0.04,846,792,0.846,0.792,2
7,202,8,2.81,1.373,0.6892,0.8562,1,1,1.652,0.232,44,50,6,10,,,1.6,1.43,-6,right,right,0.310808088,0.861125497,0.654601016,-1.140385848,5,Free,"Correct, no change",1.697570666,0.17,0.315678294,1.43,1.6,,,0.167,860,771,0.86,0.771,1
7,203,8,6.273,3.702,0.6778,0.971,0,1,0.574,0.391,50,45,5,11,,,2.284,1.627,5,right,left,0.266414291,1.313013007,0.056921827,1.050748533,5,Free,Incorrect to correct,1.981287212,0.657,0.789438938,1.627,2.284,,,0.2932,914,694,0.914,0.694,5
7,205,8,1.299,1.602,0.9587,0.9867,1,1,0.419,0.429,43,50,7,8,,,1.26,1.814,-7,right,right,1.36029302,1.374812954,1.252280205,-1.339579883,5,Free,"Correct, no change",1.130137574,-0.554,-0.388639379,1.814,1.26,,,0.028,906,745,0.906,0.745,3
7,206,8,1.148,1.504,0.8333,0.8232,1,1,0.661,0.43,57,50,7,10,,,2.567,3.147,7,left,left,0.871961256,0.731227519,1.252280205,1.449136602,7,Free,"Correct, no change",1.697570666,-0.58,-0.413932555,2.567,3.147,,,-0.0101,728,912,0.728,0.912,10
7,207,8,1.283,1.475,0.874,0.8753,1,1,0.272,0.627,56,50,6,13,,,2.046,3.019,6,left,left,1.030454899,0.936308872,0.654601016,1.249942567,7,Free,"Correct, no change",2.548720303,-0.973,-0.796248639,2.046,3.019,,,0.0013,753,892,0.753,0.892,4
7,209,8,1.355,2.581,0.8138,0.8385,0,1,0.56,0.362,50,57,7,14,,,3.302,2.351,-7,left,right,0.796024498,0.791452945,1.252280205,-1.339579883,7,Free,Incorrect to correct,2.832436849,0.951,1.075446391,3.302,2.351,,,0.0247,830,806,0.83,0.806,4
7,210,8,1.366,1.497,0.9765,1.0148,1,1,0.422,0.628,42,50,8,13,,,2.082,2.826,-8,right,right,1.429609651,1.485423051,1.849959394,-1.538773918,7,Free,"Correct, no change",2.548720303,-0.744,-0.573474127,2.826,2.082,,,0.0383,639,910,0.639,0.91,3
9,23,0,2.2,1.849,0.9247,0.8645,0,0,1.191,1.15,50,43,7,3,,,3.064,1.974,7,right,right,0.266398241,-0.912190291,0.840363761,1.123145756,7,Free,"Incorrect, no change",0.392790798,1.09,0.483445676,1.974,3.064,,,-0.0602,835,528,0.835,0.528,15
9,24,0,1.765,1.526,0.6782,0.997,1,1,1.203,0.688,50,58,8,3,,,1.068,2.627,-8,right,right,-1.279924361,0.363001202,1.378766306,-1.217257197,5,Free,"Correct, no change",0.392790798,-1.559,-0.709192774,2.627,1.068,,,0.3188,878,670,0.878,0.67,10
9,25,0,2.826,1.553,0.9787,0.9703,1,1,6.644,6.784,42,50,8,2,,,0.78,2.794,-8,right,right,0.605146398,0.106038086,1.378766306,-1.217257197,7,Free,"Correct, no change",-0.191756138,-2.014,-0.914043848,2.794,0.78,,,-0.0084,850,746,0.85,0.746,10
9,26,0,3.028,1.415,0.7457,1.0018,1,1,0.594,2.799,50,43,7,3,,,2.868,0.918,7,left,left,-0.856489165,0.409196818,0.840363761,1.123145756,5,Free,"Correct, no change",0.392790798,1.95,0.870636717,2.868,0.918,,,0.2561,673,764,0.673,0.764,10
9,27,0,3.478,1.178,0.9217,1.0122,1,1,5.796,0.669,57,50,7,6,,,4.588,1.152,7,left,left,0.247578899,0.50928732,0.840363761,1.123145756,7,Free,"Correct, no change",2.146431605,3.436,1.539666818,4.588,1.152,,,0.0905,715,802,0.715,0.802,16
9,28,0,5.04,2.12,0.8278,0.934,0,0,0.737,1.334,56,50,6,4,,,1.642,1.162,6,right,right,-0.341466506,-0.243316263,0.301961216,0.967118892,5,Free,"Incorrect, no change",0.977337734,0.48,0.20881017,1.162,1.642,,,0.1062,876,678,0.876,0.678,9
9,30,0,2,2.181,0.9893,1.001,1,1,1.267,0.807,57,50,7,4,,,2.366,1.266,7,left,left,0.671641406,0.401497549,0.840363761,1.123145756,5,Free,"Correct, no change",0.977337734,1.1,0.487947897,2.366,1.266,,,0.0117,803,658,0.803,0.658,11
9,33,0,3.667,3.282,0.827,1.0053,1,1,1.18,3.261,57,50,7,4,,,2.07,1.478,7,left,left,-0.346484997,0.442881122,0.840363761,1.123145756,5,Free,"Correct, no change",0.977337734,0.592,0.25923505,2.07,1.478,,,0.1783,998,480,0.998,0.48,12
9,34,0,3.046,4.524,0.9567,1.0128,1,1,0.613,9.416,50,43,7,2,,,1.92,0.286,7,left,left,0.467137889,0.515061772,0.840363761,1.123145756,5,Free,"Correct, no change",-0.191756138,1.634,0.72836652,1.92,0.286,,,0.0561,574,979,0.574,0.979,5
9,35,0,2.303,3.093,0.5328,0.9783,0,1,0.428,10.706,44,50,6,3,,,0.768,3.94,-6,left,right,-2.192035137,0.18303078,0.301961216,-0.90520347,7,Free,Incorrect to correct,0.392790798,-3.172,-1.435401087,0.768,3.94,,,0.4455,753,606,0.753,0.606,14
9,39,0,3.513,2.828,0.9707,0.9795,1,1,2.696,10.106,44,50,6,1,,,0.564,5.208,-6,right,right,0.554961486,0.194579684,0.301961216,-0.90520347,7,Free,"Correct, no change",-0.776303073,-4.644,-2.098128078,5.208,0.564,,,0.0088,450,1268,0.45,1.268,14
9,40,0,3.705,2.543,0.5257,0.7223,0,0,1.442,2.224,50,55,5,7,,,2.768,2.338,-5,left,left,-2.236574246,-2.280735424,-0.236441329,-0.749176607,7,Free,"Incorrect, no change",2.730978541,0.43,0.186299063,2.768,2.338,,,0.1966,631,746,0.631,0.746,16
9,41,0,4.782,3.199,0.922,0.938,1,1,3.148,1.216,50,44,6,5,,,2.342,2.642,6,left,left,0.249460834,-0.204819916,0.301961216,0.967118892,7,Free,"Correct, no change",1.56188467,-0.3,-0.142363099,2.342,2.642,,,0.016,718,846,0.718,0.846,17
9,42,1,2.763,4.038,0.967,0.997,1,1,1.377,0.649,56,50,6,5,,,1.542,1.412,6,left,left,0.531750964,0.363001202,0.301961216,0.967118892,5,Free,"Correct, no change",1.56188467,0.13,0.051232421,1.542,1.412,,,0.03,670,760,0.67,0.76,8
9,44,1,1.999,3.559,0.88,0.9615,0,0,1.018,1.032,50,44,6,4,,,1.81,3.636,6,right,right,-0.014009955,0.021346123,0.301961216,0.967118892,7,Free,"Incorrect, no change",0.977337734,-1.826,-0.829402086,3.636,1.81,,,0.0815,792,698,0.792,0.698,16
9,45,1,1.982,1.938,0.8795,0.8098,0,0,0.748,1.395,50,57,7,5,,,2.203,1.318,-7,left,left,-0.017146512,-1.438627835,0.840363761,-1.061230334,5,Free,"Incorrect, no change",1.56188467,0.885,0.391150137,2.203,1.318,,,-0.0697,630,924,0.63,0.924,10
9,46,1,3.13,4.138,0.9602,0.9528,1,1,0.74,0.554,50,58,8,2,,,0.354,4.751,-8,right,right,0.489093788,-0.062383432,1.378766306,-1.217257197,7,Free,"Correct, no change",-0.191756138,-4.397,-1.986923209,4.751,0.354,,,-0.0074,874,709,0.874,0.709,12
9,47,1,7.926,1.527,0.9482,1.0038,1,1,0.92,1.806,50,42,8,2,,,4.796,0.298,8,left,left,0.41381642,0.428444991,1.378766306,1.279172619,7,Free,"Correct, no change",-0.191756138,4.498,2.017802731,4.796,0.298,,,0.0556,1015,460,1.015,0.46,13
9,49,1,1.726,1.386,0.9825,1.0173,1,1,2.578,1.384,50,43,7,4,,,2.493,0.832,7,left,left,0.628984231,0.558370162,0.840363761,1.123145756,5,Free,"Correct, no change",0.977337734,1.661,0.740522518,2.493,0.832,,,0.0348,862,502,0.862,0.502,11
9,50,1,5.343,1.88,0.5852,1.0123,0,1,1.395,2.313,50,56,6,2,,,0.852,4.233,-6,left,right,-1.863323963,0.510249729,0.301961216,-0.90520347,7,Free,Incorrect to correct,-0.191756138,-3.381,-1.529497514,0.852,4.233,,,0.4271,797,638,0.797,0.638,14
9,53,1,1.61,2.125,0.9872,1.0043,1,1,1.043,0.631,42,50,8,2,,,0.334,2.353,-8,right,right,0.658467867,0.433257035,1.378766306,-1.217257197,5,Free,"Correct, no change",-0.191756138,-2.019,-0.916294959,2.353,0.334,,,0.0171,774,710,0.774,0.71,9
9,55,1,5.857,2.619,0.977,0.9887,1,1,0.636,0.873,50,43,7,4,,,4.844,0.83,7,left,left,0.594482104,0.283121282,0.840363761,1.123145756,7,Free,"Correct, no change",0.977337734,4.014,1.799895215,4.844,0.83,,,0.0117,818,676,0.818,0.676,13
9,56,1,6.18,5.234,0.9695,0.7315,0,0,1.59,0.776,43,50,7,4,,,1.952,1.69,-7,left,left,0.547433749,-2.192193827,0.840363761,-1.061230334,5,Free,"Incorrect, no change",0.977337734,0.262,0.110661744,1.952,1.69,,,-0.238,757,694,0.757,0.694,12
9,57,1,1.652,1.651,0.8167,1.0123,1,1,1.102,2.402,50,58,8,4,,,1.306,3.772,-8,right,right,-0.411098071,0.510249729,1.378766306,-1.217257197,7,Free,"Correct, no change",0.977337734,-2.466,-1.117544256,3.772,1.306,,,0.1956,694,700,0.694,0.7,13
9,58,1,1.509,1.404,0.9912,1.0093,1,1,1.572,2.849,42,50,8,2,,,0.314,2.3,-8,right,right,0.683560323,0.481377468,1.378766306,-1.217257197,5,Free,"Correct, no change",-0.191756138,-1.986,-0.901437628,2.3,0.314,,,0.0181,838,764,0.838,0.764,7
9,59,1,2.322,5.421,0.8363,0.8603,1,1,1.018,0.769,43,50,7,3,,,3.032,1,-7,right,right,-0.288145037,-0.952611455,0.840363761,-1.061230334,5,Free,"Correct, no change",0.392790798,2.032,0.907554932,1,3.032,,,0.024,528,861,0.528,0.861,12
9,61,1,1.677,1.2,0.903,0.991,1,1,0.778,0.895,50,58,8,2,,,0.39,4.291,-8,right,right,0.130271667,0.305256681,1.378766306,-1.217257197,7,Free,"Correct, no change",-0.191756138,-3.901,-1.763613027,4.291,0.39,,,0.088,604,748,0.604,0.748,14
9,63,2,1.853,1.617,0.962,0.9925,1,1,0.902,1.391,43,50,7,4,,,0.948,1.816,-7,right,right,0.500385394,0.319692811,0.840363761,-1.061230334,5,Free,"Correct, no change",0.977337734,-0.868,-0.398089275,1.816,0.948,,,0.0305,836,754,0.836,0.754,10
9,66,2,1.923,1.504,0.9863,0.9893,1,1,0.785,1.049,42,50,8,4,,,0.934,3.607,-8,right,right,0.652822064,0.288895734,1.378766306,-1.217257197,7,Free,"Correct, no change",0.977337734,-2.673,-1.210740239,3.607,0.934,,,0.003,416,1139,0.416,1.139,9
9,67,2,4.32,2.163,0.9758,1.006,1,0,0.793,1.278,57,50,7,5,,,2.386,1.341,7,left,right,0.586954367,0.449617982,0.840363761,1.123145756,5,Free,Correct to incorrect,1.56188467,1.045,0.46318568,2.386,1.341,,,0.0302,661,818,0.661,0.818,11
9,68,2,2.418,1.752,0.9558,0.9917,1,1,0.945,1.665,50,57,7,3,,,1.292,3.671,-7,right,right,0.461492087,0.311993542,0.840363761,-1.061230334,7,Free,"Correct, no change",0.392790798,-2.379,-1.078374929,3.671,1.292,,,0.0359,870,648,0.87,0.648,18
9,69,2,2.747,3.515,0.9818,1.0038,1,1,0.92,0.843,56,50,6,4,,,4.168,0.898,6,left,left,0.624593051,0.428444991,0.301961216,0.967118892,7,Free,"Correct, no change",0.977337734,3.27,1.464929942,4.168,0.898,,,0.022,808,524,0.808,0.524,18
9,70,2,2.604,2.777,0.7023,1.0038,1,1,1.447,1.129,44,50,6,1,,,0.58,4.243,-6,right,right,-1.128742313,0.428444991,0.301961216,-0.90520347,7,Free,"Correct, no change",-0.776303073,-3.663,-1.656460158,4.243,0.58,,,0.3015,854,685,0.854,0.685,12
9,71,2,3.069,1.383,0.9898,1.0102,1,1,1.587,1.043,50,55,5,2,,,0.946,3.29,-5,right,right,0.674777963,0.490039147,-0.236441329,-0.749176607,7,Free,"Correct, no change",-0.191756138,-2.344,-1.062617155,3.29,0.946,,,0.0204,906,678,0.906,0.678,14
9,72,2,6.398,4.189,0.984,1.0097,1,1,2.016,1.107,55,50,5,4,,,3.858,1.396,5,left,left,0.638393902,0.485227103,-0.236441329,0.811092029,7,Free,"Correct, no change",0.977337734,2.462,1.101150453,3.858,1.396,,,0.0257,991,796,0.991,0.796,14
9,73,2,1.787,3.685,0.9868,1.0023,0,1,1.232,0.92,50,54,4,3,,,2.116,1.159,-4,left,right,0.655958621,0.414008861,-0.774843874,-0.593149743,5,Free,Incorrect to correct,0.392790798,0.957,0.423566131,2.116,1.159,,,0.0155,724,708,0.724,0.708,9
9,74,2,2.305,4.284,0.9755,1.0033,1,1,0.782,1.213,55,50,5,1,,,2.41,0.706,5,left,left,0.585072433,0.423632948,-0.236441329,0.811092029,5,Free,"Correct, no change",-0.776303073,1.704,0.75988207,2.41,0.706,,,0.0278,828,694,0.828,0.694,9
9,77,2,1.512,1.559,0.9122,0.9533,1,1,0.789,0.911,50,55,5,6,,,2.168,1.65,-5,right,right,0.187984316,-0.057571389,-0.236441329,-0.749176607,5,Free,"Correct, no change",2.146431605,0.518,0.225918612,1.65,2.168,,,0.0411,904,614,0.904,0.614,11
9,79,2,2.002,1.091,0.986,0.9873,1,1,0.587,1,56,50,6,4,,,2.842,0.782,6,left,left,0.65094013,0.26964756,0.301961216,0.967118892,5,Free,"Correct, no change",0.977337734,2.06,0.920161152,2.842,0.782,,,0.0013,683,752,0.683,0.752,9
