,index,participant,Trial,Block,RT1,RT2,Conf1,Conf2,Correct1,Correct2,Conf1_RT,Conf2_RT,DotNumberLeft,DotNumberRight,DotDifference,Switch,Left_Presentation_Time,Right_Presentation_Time,LeftTime,RightTime,NonAbsDiff,Response1,Response2,ZConf1,ZConf2,Zdifficult,ZNonAbsDiff,SamplingLength,Session,Type,ZSwitch,DeltaSampling,ZDeltaSampling,ChosenTime,UnchosenTime,Chosen_Presentation_Time,Unchosen_Presentation_Time,ConfChange,Left_IA_First_Dwell_Time,Right_IA_First_Dwell_Time,LeftTime_First,RightTime_First,Internal_Saccades,Left_Gazetime_New,Right_Gazetime_New,LEFT_PRESENTATION_TIME_REV,RIGHT_PRESENTATION_TIME_REV
0,2244,1,22,0,1.656,0.913,0.4795,0.4028,1,0,0.827,1.078,50,46,4,3,5.25,1.75,1.618,3.52,4,left,right,-0.042585374,-0.29096419,0.011777391,1.004480043,7,Fixed,Correct to incorrect,0.115671196,-1.902,-1.342297796,1.618,3.52,5.25,1.75,-0.0767,727,796,0.727,0.796,12,1618,3587,1750,5250
1,2245,1,23,0,1.186,1.435,0.5738,0.6125,1,1,1.316,1.24,50,46,4,1,1.75,5.25,4.072,2.236,4,left,left,0.49614381,0.707931716,0.011777391,1.004480043,7,Fixed,"Correct, no change",-1.098876361,1.836,1.117380349,4.072,2.236,1.75,5.25,0.0387,882,500,0.882,0.5,19,4139,2464,5250,1750
2,2246,1,25,0,2.165,1.187,0.5345,0.406,1,1,1.329,0.647,53,50,3,2,1.25,3.75,1.595,1.412,3,left,left,0.271625709,-0.275721143,-0.54764869,0.742441771,5,Fixed,"Correct, no change",-0.491602583,0.183,0.029673561,1.595,1.412,1.25,3.75,-0.1285,884,732,0.884,0.732,7,1662,1412,3750,1250
3,2247,1,26,0,1.05,1.186,0.7292,0.8662,1,1,1.262,1.507,52,50,2,2,3.75,1.25,1.392,2.22,2,left,left,1.383932943,1.916419514,-1.107074771,0.480403499,5,Fixed,"Correct, no change",-0.491602583,-0.828,-0.635584492,1.392,2.22,3.75,1.25,0.137,446,816,0.446,0.816,8,1637,2220,1250,3750
4,2248,1,27,0,1.401,0.893,0.5992,0.6885,1,1,1.183,2.216,52,50,2,1,5.25,1.75,1.518,1.576,2,left,left,0.641252201,1.069954076,-1.107074771,0.480403499,7,Fixed,"Correct, no change",-1.098876361,-0.058,-0.128909219,1.518,1.576,5.25,1.75,0.0893,630,792,0.63,0.792,6,1584,1576,1750,5250
5,2249,1,30,0,1.683,1.658,0.6608,0.7575,0,0,14.223,1.447,50,50,0,3,3.5,3.5,3.147,2.564,0,left,left,0.993168614,1.398632271,-2.225926933,-0.043673045,7,Fixed,"Incorrect, no change",0.115671196,0.583,0.292881495,3.147,2.564,3.5,3.5,0.0967,578,848,0.578,0.848,11,3683,2564,3500,3500
6,2250,1,32,0,2.031,1.783,0.5472,0.5992,1,1,3.728,9.421,51,50,1,1,1.25,3.75,1.702,1.07,1,left,left,0.344179905,0.644577803,-1.666500852,0.218365227,5,Fixed,"Correct, no change",-1.098876361,0.632,0.325124467,1.702,1.07,1.25,3.75,0.052,594,810,0.594,0.81,5,1768,1070,3750,1250
7,2251,1,35,0,1.296,2.063,0.6425,0.6462,1,1,2.806,1.545,51,50,1,5,2.5,2.5,2.45,1.444,1,left,left,0.888622018,0.868460052,-1.666500852,0.218365227,5,Fixed,"Correct, no change",1.330218753,1.006,0.571223886,2.45,1.444,2.5,2.5,0.0037,1222,636,1.222,0.636,7,2893,1444,2500,2500
8,2252,1,37,0,2.097,1.335,0.6107,0.406,0,1,0.749,0.684,51,50,1,3,1.25,3.75,1.6,1.444,1,right,left,0.706950882,-0.275721143,-1.666500852,0.218365227,5,Fixed,Incorrect to correct,0.115671196,0.156,0.011907026,1.444,1.6,3.75,1.25,-0.2047,906,760,0.906,0.76,5,1990,1444,3750,1250
9,2253,1,38,0,3.085,2.22,0.2997,0.296,1,0,1.228,0.928,50,52,2,7,1.75,5.25,3.305,1.808,-2,right,left,-1.069769969,-0.799700874,-1.107074771,-0.56774959,7,Fixed,Correct to incorrect,2.54476631,1.497,0.894311625,1.808,3.305,5.25,1.75,-0.0037,744,824,0.744,0.824,11,3450,1808,5250,1750
10,2254,1,39,0,1.388,1.967,0.6388,0.3118,0,0,1.165,1.688,52,50,2,5,1.75,5.25,3.44,2.012,2,right,right,0.867484181,-0.724438331,-1.107074771,0.480403499,7,Fixed,"Incorrect, no change",1.330218753,1.428,0.848908256,2.012,3.44,5.25,1.75,-0.327,898,550,0.898,0.55,9,3440,2446,5250,1750
11,2255,1,40,0,1.185,1.711,0.6698,0.7868,1,1,6.55,4.822,53,50,3,6,3.5,3.5,1.786,2.584,3,left,left,1.044584973,1.538201417,-0.54764869,0.742441771,7,Fixed,"Correct, no change",1.937492532,-0.798,-0.615843897,1.786,2.584,3.5,3.5,0.117,462,930,0.462,0.93,7,1853,2584,3500,3500
12,2256,1,41,0,1.869,1.483,0.6367,0.6253,1,1,4.911,1.08,53,50,3,1,2.5,2.5,2.342,2.024,3,left,left,0.855487031,0.768903903,-0.54764869,0.742441771,5,Fixed,"Correct, no change",-1.098876361,0.318,0.118506239,2.342,2.024,2.5,2.5,-0.0114,652,966,0.652,0.966,11,2409,2278,2500,2500
13,2257,1,42,1,2.475,1.106,0.5907,0.6268,0,0,2.068,2.581,50,52,2,5,2.5,2.5,1.568,1.984,-2,left,left,0.592692307,0.776049081,-1.107074771,-0.56774959,5,Fixed,"Incorrect, no change",1.330218753,-0.416,-0.36448032,1.568,1.984,2.5,2.5,0.0361,585,798,0.585,0.798,6,1635,1984,2500,2500
14,2258,1,45,1,1.214,2.411,0.3137,0.268,1,0,1.63,1.239,50,52,2,1,3.75,1.25,1.294,3.164,-2,right,left,-0.989788966,-0.933077533,-1.107074771,-0.56774959,5,Fixed,Correct to incorrect,-1.098876361,-1.87,-1.321241161,3.164,1.294,1.25,3.75,-0.0457,776,840,0.776,0.84,12,1530,3164,1250,3750
15,2259,1,47,1,1.54,2.195,0.4173,0.1787,1,0,0.381,1.632,49,50,1,3,3.5,3.5,2.096,3.15,-1,right,left,-0.397929544,-1.358453806,-1.666500852,-0.305711318,7,Fixed,Correct to incorrect,0.115671196,-1.054,-0.784296975,3.15,2.096,3.5,3.5,-0.2386,910,582,0.91,0.582,9,2162,3324,3500,3500
16,2260,1,48,1,1.37,3.011,0.3663,0.3127,0,1,1.268,1.703,51,50,1,3,1.75,5.25,2.288,1.657,1,right,left,-0.689288912,-0.720151224,-1.666500852,0.218365227,7,Fixed,Incorrect to correct,0.115671196,0.631,0.324466447,1.657,2.288,5.25,1.75,-0.0536,858,456,0.858,0.456,5,2627,1657,5250,1750
17,2261,1,49,1,1.817,1.558,0.427,0.2398,0,1,0.379,1.038,52,50,2,4,2.5,2.5,2.105,1.502,2,right,left,-0.342514135,-1.067406882,-1.107074771,0.480403499,5,Fixed,Incorrect to correct,0.722944974,0.603,0.306041892,1.502,2.105,2.5,2.5,-0.1872,916,747,0.916,0.747,6,2539,1502,2500,2500
18,2262,1,50,1,1.579,1.163,0.515,0.4835,1,1,0.676,1.656,50,53,3,3,1.75,5.25,4.608,1.46,-3,right,right,0.160223598,0.093446395,-0.54764869,-0.829787862,7,Fixed,"Correct, no change",0.115671196,3.148,1.980702373,1.46,4.608,5.25,1.75,-0.0315,766,828,0.766,0.828,14,4608,1526,5250,1750
19,2263,1,51,1,1.298,0.904,0.8162,0.8873,1,1,1.148,1.366,53,50,3,1,1.25,3.75,0.406,0.728,3,left,left,1.880957747,2.016928353,-0.54764869,0.742441771,5,Fixed,"Correct, no change",-1.098876361,-0.322,-0.302626456,0.406,0.728,1.25,3.75,0.0711,350,828,0.35,0.828,3,473,728,3750,1250
20,2264,1,52,1,1.377,1.438,0.6252,0.4882,0,0,1.004,1.813,50,52,2,1,2.5,2.5,2.304,1.955,-2,left,left,0.78978835,0.11583462,-1.107074771,-0.56774959,5,Fixed,"Incorrect, no change",-1.098876361,0.349,0.138904854,2.304,1.955,2.5,2.5,-0.137,660,814,0.66,0.814,12,2371,2018,2500,2500
21,2265,1,54,1,1.878,1.517,0.4728,0.2032,1,1,1.051,1.17,50,53,3,2,3.5,3.5,2.43,2.65,-3,right,right,-0.080861997,-1.241749229,-0.54764869,-0.829787862,7,Fixed,"Correct, no change",-0.491602583,-0.22,-0.235508432,2.65,2.43,3.5,3.5,-0.2696,696,824,0.696,0.824,14,2646,2716,3500,3500
22,2266,1,56,1,1.519,3.083,0.5285,0.4068,0,1,1.98,0.744,50,53,3,3,1.25,3.75,2.602,1.639,-3,left,right,0.237348136,-0.271910381,-0.54764869,-0.829787862,5,Fixed,Incorrect to correct,0.115671196,0.963,0.542929033,2.602,1.639,1.25,3.75,-0.1217,764,830,0.764,0.83,11,2602,1777,3750,1250
23,2267,1,58,1,1.088,2.576,0.6793,0.8258,1,1,1.048,1.019,55,50,5,1,3.75,1.25,0.84,2.48,5,left,left,1.098857797,1.723976049,0.571203472,1.266518316,5,Fixed,"Correct, no change",-1.098876361,-1.64,-1.169896599,0.84,2.48,3.75,1.25,0.1465,486,804,0.486,0.804,7,1417,2480,1250,3750
24,2268,1,59,1,1.9,1.577,0.5697,0.5697,0,0,0.62,0.681,45,50,5,1,2.5,2.5,1.958,2.376,-5,left,left,0.472720802,0.504055966,0.571203472,-1.353864406,5,Fixed,"Incorrect, no change",-1.098876361,-0.418,-0.36579636,1.958,2.376,2.5,2.5,0,508,788,0.508,0.788,10,2249,2376,2500,2500
25,2269,1,60,1,1.347,1.817,0.513,0.241,1,0,1.591,0.849,50,56,6,1,1.75,5.25,4.622,1.878,-6,right,left,0.14879774,-1.06169074,1.130629553,-1.615902679,7,Fixed,Correct to incorrect,-1.098876361,2.744,1.714862359,1.878,4.622,5.25,1.75,-0.272,848,749,0.848,0.749,17,4789,1878,5250,1750
26,2270,1,61,1,1.079,0.93,0.405,0.6748,1,1,0.802,3.382,50,44,6,3,1.75,5.25,1.264,1.55,6,left,left,-0.468198568,1.004694782,1.130629553,1.528556588,7,Fixed,"Correct, no change",0.115671196,-0.286,-0.278937742,1.264,1.55,1.75,5.25,0.2698,610,830,0.61,0.83,6,1331,1550,5250,1750
27,2271,1,62,1,1.111,3.2,0.508,0.441,1,1,0.405,1.163,50,45,5,2,3.5,3.5,3.098,3.059,5,left,left,0.120233096,-0.109000319,0.571203472,1.266518316,7,Fixed,"Correct, no change",-0.491602583,0.039,-0.065081295,3.098,3.059,3.5,3.5,-0.067,514,764,0.514,0.764,15,3319,3295,3500,3500
28,2272,1,64,2,1.724,1.69,0.3152,0.2437,0,0,0.687,0.783,50,54,4,3,3.5,3.5,2.658,3.251,-4,left,left,-0.981219573,-1.048829419,0.011777391,-1.091826134,7,Fixed,"Incorrect, no change",0.115671196,-0.593,-0.480949831,2.658,3.251,3.5,3.5,-0.0715,598,802,0.598,0.802,16,2725,3754,3500,3500
29,2273,1,65,2,1.044,0.789,0.767,0.8945,1,1,0.428,1.078,55,50,5,1,2.5,2.5,1.888,1.118,5,left,left,1.599881651,2.051225209,0.571203472,1.266518316,5,Fixed,"Correct, no change",-1.098876361,0.77,0.415931204,1.888,1.118,2.5,2.5,0.1275,902,580,0.902,0.58,8,1954,1118,2500,2500
30,2274,1,68,2,1.682,1.703,0.2317,0.224,1,0,0.903,0.633,50,55,5,2,3.5,3.5,3.588,2.572,-5,right,left,-1.458249126,-1.142669425,0.571203472,-1.353864406,7,Fixed,Correct to incorrect,-0.491602583,1.016,0.577804084,2.572,3.588,3.5,3.5,-0.0077,632,828,0.632,0.828,13,3933,2572,3500,3500
31,2275,1,69,2,2.309,1.101,0.5618,0.6012,1,1,0.789,0.778,55,50,5,1,2.5,2.5,2.653,1.652,5,left,left,0.427588665,0.654104707,0.571203472,1.266518316,5,Fixed,"Correct, no change",-1.098876361,1.001,0.567933786,2.653,1.652,2.5,2.5,0.0394,892,560,0.892,0.56,11,2720,1652,2500,2500
32,2276,1,70,2,2.945,3.853,0.3697,0.4755,1,1,0.91,0.535,50,54,4,1,3.5,3.5,2.926,2.99,-4,right,right,-0.669864954,0.055338778,0.011777391,-1.091826134,7,Fixed,"Correct, no change",-1.098876361,-0.064,-0.132857338,2.99,2.926,3.5,3.5,0.1058,670,846,0.67,0.846,20,2926,3345,3500,3500
33,2277,1,74,2,1.666,3.157,0.285,0.4193,1,0,0.685,0.364,50,48,2,1,1.75,5.25,4.924,1.369,2,left,right,-1.153750022,-0.21236723,-1.107074771,0.480403499,7,Fixed,Correct to incorrect,-1.098876361,3.555,2.248516446,4.924,1.369,1.75,5.25,0.1343,708,770,0.708,0.77,21,4924,1826,5250,1750
34,2278,1,75,2,1.508,1.653,0.5012,0.3415,0,1,2.336,0.355,48,50,2,1,2.5,2.5,1.736,2.221,-2,left,right,0.081385181,-0.582963804,-1.107074771,-0.56774959,5,Fixed,Incorrect to correct,-1.098876361,-0.485,-0.409883689,1.736,2.221,2.5,2.5,-0.1597,612,834,0.612,0.834,5,1736,2810,2500,2500
35,2279,1,76,2,1.613,1.268,0.3098,0.1725,1,0,0.366,0.501,47,50,3,1,1.25,3.75,2.01,1.112,-3,right,left,-1.012069388,-1.387987209,-0.54764869,-0.829787862,5,Fixed,Correct to incorrect,-1.098876361,0.898,0.500157743,1.112,2.01,3.75,1.25,-0.1373,826,564,0.826,0.564,9,2077,1112,3750,1250
36,2280,1,77,2,1.386,1.418,0.5598,0.3933,1,1,0.687,0.604,50,53,3,4,5.25,1.75,2.118,3.252,-3,right,right,0.416162807,-0.336216985,-0.54764869,-0.829787862,7,Fixed,"Correct, no change",0.722944974,-1.134,-0.836938562,3.252,2.118,1.75,5.25,-0.1665,924,474,0.924,0.474,10,2396,3318,1750,5250
37,2281,1,79,2,1.876,1.367,0.5108,0.5438,0,1,0.721,1.147,52,50,2,1,3.5,3.5,1.482,3.168,2,right,left,0.136229297,0.380682557,-1.107074771,0.480403499,7,Fixed,Incorrect to correct,-1.098876361,-1.686,-1.200165511,3.168,1.482,3.5,3.5,0.033,892,757,0.892,0.757,15,1823,3168,3500,3500
38,2282,1,80,2,1.415,1.619,0.3125,0.3448,0,1,0.627,1.078,53,50,3,1,1.75,5.25,4.786,1.642,3,right,left,-0.996644481,-0.567244412,-0.54764869,0.742441771,7,Fixed,Incorrect to correct,-1.098876361,3.144,1.978070294,1.642,4.786,5.25,1.75,0.0323,692,814,0.692,0.814,17,4853,1923,5250,1750
39,2283,1,82,2,1.957,1.58,0.3752,0.3347,0,0,0.409,0.716,50,55,5,3,3.75,1.25,1.351,3.034,-5,left,left,-0.638443846,-0.615355278,0.571203472,-1.353864406,5,Fixed,"Incorrect, no change",0.115671196,-1.683,-1.198191452,1.351,3.034,3.75,1.25,-0.0405,732,820,0.732,0.82,6,1607,3034,1250,3750
40,2284,1,83,2,0.492,1.519,0.4475,0.4022,1,0,1.229,1.016,50,56,6,3,3.75,1.25,1.22,3.442,-6,right,left,-0.225399095,-0.293822261,1.130629553,-1.615902679,5,Fixed,Correct to incorrect,0.115671196,-2.222,-1.552864143,3.442,1.22,1.25,3.75,-0.0453,932,506,0.932,0.506,7,1599,3442,1250,3750
41,2285,1,84,3,0.928,1.307,0.801,0.8787,1,1,0.952,1.487,50,44,6,0,2.5,2.5,1.24,2.114,6,left,left,1.79412123,1.975962665,1.130629553,1.528556588,5,Fixed,"Correct, no change",-1.70615014,-0.874,-0.665853405,1.24,2.114,2.5,2.5,0.0777,372,840,0.372,0.84,6,1307,2114,2500,2500
42,2286,1,85,3,1.241,1.524,0.3517,0.5963,1,1,0.838,1.318,55,50,5,3,5.25,1.75,1.906,4.304,5,left,left,-0.772697672,0.630763792,0.571203472,1.266518316,7,Fixed,"Correct, no change",0.115671196,-2.398,-1.668675634,1.906,4.304,5.25,1.75,0.2446,618,796,0.618,0.796,12,2336,4304,1750,5250
43,2287,1,86,3,2.67,1.523,0.2747,0.593,0,1,1.428,0.894,55,50,5,2,2.5,2.5,1.677,1.264,5,right,left,-1.212593188,0.6150444,0.571203472,1.266518316,5,Fixed,Incorrect to correct,-0.491602583,0.413,0.181018123,1.264,1.677,2.5,2.5,0.3183,888,590,0.888,0.59,6,1873,1264,2500,2500
44,2288,1,89,3,1.789,1.428,0.302,0.5285,0,0,1.161,0.676,45,50,5,1,1.75,5.25,1.954,1.578,-5,left,left,-1.056630233,0.307801739,0.571203472,-1.353864406,7,Fixed,"Incorrect, no change",-1.098876361,0.376,0.156671389,1.954,1.578,1.75,5.25,0.2265,894,753,0.894,0.753,5,2021,1578,5250,1750
45,2289,1,90,3,2.795,2.061,0.3758,0.4988,1,0,0.801,0.734,44,50,6,2,1.75,5.25,2.608,2.128,-6,right,left,-0.635016089,0.166327212,1.130629553,-1.615902679,7,Fixed,Correct to incorrect,-0.491602583,0.48,0.225105452,2.128,2.608,5.25,1.75,0.123,892,662,0.892,0.662,8,2949,2040,5250,1750
46,2290,1,93,3,0.993,2.069,0.7682,0.388,1,1,0.814,0.525,50,55,5,4,1.75,5.25,3.95,2.134,-5,right,right,1.606737166,-0.361463281,0.571203472,-1.353864406,7,Fixed,"Correct, no change",0.722944974,1.816,1.104219952,2.134,3.95,5.25,1.75,-0.3802,736,698,0.736,0.698,12,3950,2725,5250,1750
47,2291,1,94,3,1.125,1.638,0.5535,0.489,1,1,0.753,0.747,50,54,4,1,2.5,2.5,2.302,1.602,-4,right,right,0.380171356,0.119645381,0.011777391,-1.091826134,5,Fixed,"Correct, no change",-1.098876361,0.7,0.369869816,1.602,2.302,2.5,2.5,-0.0645,932,482,0.932,0.482,9,2302,1669,2500,2500
48,2292,1,97,3,1.144,2.795,0.3933,0.0598,1,0,1.01,0.659,54,50,4,1,3.5,3.5,2.882,3.192,4,left,right,-0.535039835,-1.924828261,0.011777391,1.004480043,7,Fixed,Correct to incorrect,-1.098876361,-0.31,-0.294730218,2.882,3.192,3.5,3.5,-0.3335,564,822,0.564,0.822,18,3088,3258,3500,3500
49,2293,1,98,3,2.375,1.666,0.1297,0.3525,0,1,0.695,0.988,50,46,4,5,3.75,1.25,1.641,2.6,4,right,left,-2.040967862,-0.53056583,0.011777391,1.004480043,5,Fixed,Incorrect to correct,1.330218753,-0.959,-0.721785091,2.6,1.641,1.25,3.75,0.2228,924,762,0.924,0.762,10,1725,2908,1250,3750
50,2294,1,99,3,1.54,3.769,0.8083,0.2557,1,1,1.199,1.278,45,50,5,1,2.5,2.5,2.778,1.352,-5,right,right,1.83582561,-0.991667994,0.571203472,-1.353864406,5,Fixed,"Correct, no change",-1.098876361,1.426,0.847592216,1.352,2.778,2.5,2.5,-0.5526,904,494,0.904,0.494,9,3088,1584,2500,2500
51,2295,1,100,3,1.479,1.329,0.2988,0.307,0,1,0.63,1.344,55,50,5,3,3.5,3.5,3.213,2.52,5,right,left,-1.074911605,-0.747302901,0.571203472,1.266518316,7,Fixed,Incorrect to correct,0.115671196,0.693,0.365263677,2.52,3.213,3.5,3.5,0.0082,916,551,0.916,0.551,11,3581,2520,3500,3500
52,2296,1,101,3,1.096,0.883,0.5568,0.6422,1,1,1.132,0.872,50,44,6,2,1.25,3.75,1.324,2.308,6,left,left,0.399024021,0.849406243,1.130629553,1.528556588,5,Fixed,"Correct, no change",-0.491602583,-0.984,-0.738235587,1.324,2.308,1.25,3.75,0.0854,412,832,0.412,0.832,5,1391,2308,3750,1250
53,2297,1,103,3,2.49,2.674,0.4588,0.5885,1,1,0.403,1.038,45,50,5,5,5.25,1.75,1.94,2.677,-5,right,right,-0.160843,0.593608865,0.571203472,-1.353864406,7,Fixed,"Correct, no change",1.330218753,-0.737,-0.575704687,2.677,1.94,1.75,5.25,0.1297,910,510,0.91,0.51,9,1940,2991,1750,5250
54,2298,1,104,3,1.842,0.724,0.3105,0.3212,1,1,0.717,0.714,50,54,4,3,1.25,3.75,1.86,1.421,-4,right,right,-1.008070338,-0.679661881,0.011777391,-1.091826134,5,Fixed,"Correct, no change",0.115671196,0.439,0.198126639,1.421,1.86,3.75,1.25,0.0107,608,859,0.608,0.859,6,1860,1488,3750,1250
55,2299,1,105,4,0.974,1.182,0.766,0.9148,1,1,0.915,0.969,50,54,4,1,2.5,2.5,2.096,1.526,-4,right,right,1.594168722,2.147923286,0.011777391,-1.091826134,5,Fixed,"Correct, no change",-1.098876361,0.57,0.284327237,1.526,2.096,2.5,2.5,0.1488,860,550,0.86,0.55,7,2096,1593,2500,2500
56,2300,1,108,4,1.184,1.464,0.8022,0.5772,0,0,1.034,4.586,48,50,2,1,3.5,3.5,2.399,2.926,-2,left,left,1.800976744,0.539781857,-1.107074771,-0.56774959,7,Fixed,"Incorrect, no change",-1.098876361,-0.527,-0.437520522,2.399,2.926,3.5,3.5,-0.225,544,856,0.544,0.856,10,2755,2926,3500,3500
57,2301,1,110,4,1.731,2.039,0.4482,0.1962,0,0,1.056,1.622,50,54,4,3,2.5,2.5,1.813,1.748,-4,left,left,-0.221400045,-1.275093394,0.011777391,-1.091826134,5,Fixed,"Incorrect, no change",0.115671196,0.065,-0.047972779,1.813,1.748,2.5,2.5,-0.252,749,766,0.749,0.766,4,1937,1748,2500,2500
58,2302,1,111,4,3.141,1.575,0.4138,0.6122,1,1,0.636,0.781,55,50,5,1,3.75,1.25,0.826,3.416,5,left,left,-0.417924795,0.70650268,0.571203472,1.266518316,5,Fixed,"Correct, no change",-1.098876361,-2.59,-1.795015442,0.826,3.416,3.75,1.25,0.1984,755,856,0.755,0.856,10,1173,3416,1250,3750
59,2303,1,113,4,2.55,1.947,0.2792,0.3378,0,1,0.406,0.401,50,46,4,1,1.25,3.75,3.534,0.968,4,right,left,-1.186885009,-0.600588576,0.011777391,1.004480043,5,Fixed,Incorrect to correct,-1.098876361,2.566,1.597734829,0.968,3.534,3.75,1.25,0.0586,900,765,0.9,0.765,10,3601,1308,3750,1250
60,2304,1,114,4,1.436,1.935,0.153,0.1822,1,0,0.442,0.62,45,50,5,4,1.25,3.75,1.602,2.81,-5,right,left,-1.907856621,-1.341781723,0.571203472,-1.353864406,5,Fixed,Correct to incorrect,0.722944974,-1.208,-0.88563203,2.81,1.602,3.75,1.25,0.0292,736,778,0.736,0.778,9,1911,2810,3750,1250
61,2305,1,115,4,2.127,1.63,0.5663,0.3085,0,0,0.882,0.554,50,55,5,3,3.75,1.25,1.42,2.888,-5,left,left,0.453296844,-0.740157723,0.571203472,-1.353864406,5,Fixed,"Incorrect, no change",0.115671196,-1.468,-1.056717187,1.42,2.888,3.75,1.25,-0.2578,852,646,0.852,0.646,11,1487,3162,1250,3750
62,2306,1,117,4,1.762,4.125,0.3735,0.271,0,1,2.059,0.521,44,50,6,2,3.5,3.5,2.462,3.49,-6,left,right,-0.648155825,-0.918787177,1.130629553,-1.615902679,7,Fixed,Incorrect to correct,-0.491602583,-1.028,-0.767188459,2.462,3.49,3.5,3.5,-0.1025,763,864,0.763,0.864,12,2462,3959,3500,3500
63,2307,1,118,4,1.95,1.359,0.675,0.7,1,1,1.178,1.608,57,50,7,1,3.5,3.5,2.86,3.194,7,left,left,1.074292203,1.124733775,1.690055635,1.79059486,7,Fixed,"Correct, no change",-1.098876361,-0.334,-0.310522694,2.86,3.194,3.5,3.5,0.025,739,780,0.739,0.78,17,2927,3392,3500,3500
64,2308,1,119,4,1.469,2.232,0.7778,0.675,1,1,0.688,1.261,50,57,7,3,1.25,3.75,3.112,1.214,-7,right,right,1.661581282,1.005647472,1.690055635,-1.877940951,5,Fixed,"Correct, no change",0.115671196,1.898,1.158177579,1.214,3.112,3.75,1.25,-0.1028,904,622,0.904,0.622,12,3112,1636,3750,1250
65,2309,1,122,4,10.569,1.855,0.5905,0.3392,1,1,1.063,0.748,50,45,5,0,3.5,3.5,3.16,2.851,5,left,left,0.591549721,-0.593919743,0.571203472,1.266518316,7,Fixed,"Correct, no change",-1.70615014,0.309,0.11258406,3.16,2.851,3.5,3.5,-0.2513,734,718,0.734,0.718,15,3227,3192,3500,3500
66,2310,1,123,4,1.214,1.401,0.6085,0.5707,1,1,0.393,1.147,45,50,5,0,3.75,1.25,0.846,2.656,-5,right,right,0.694382439,0.508819418,0.571203472,-1.353864406,5,Fixed,"Correct, no change",-1.70615014,-1.81,-1.281759971,2.656,0.846,1.25,3.75,-0.0378,902,450,0.902,0.45,7,1108,2888,1250,3750
67,2311,1,124,4,5.175,1.878,0.5342,0.61,1,1,0.949,0.534,50,46,4,4,5.25,1.75,2.507,2.704,4,left,left,0.269911831,0.696023086,0.011777391,1.004480043,7,Fixed,"Correct, no change",0.722944974,-0.197,-0.220373976,2.507,2.704,5.25,1.75,0.0758,874,690,0.874,0.69,13,2590,2660,1750,5250
68,2312,1,125,4,1.685,1.155,0.6937,0.1295,1,1,0.924,1.393,50,46,4,5,3.5,3.5,1.89,3.784,4,left,left,1.181123971,-1.592815649,0.011777391,1.004480043,7,Fixed,"Correct, no change",1.330218753,-1.894,-1.337033637,1.89,3.784,3.5,3.5,-0.5642,624,848,0.624,0.848,10,1957,3776,3500,3500
69,2313,1,126,5,5.678,3.906,0.2002,0.2413,1,0,0.334,0.376,47,50,3,1,1.75,5.25,5.024,1.084,-3,right,left,-1.638206383,-1.060261704,-0.54764869,-0.829787862,7,Fixed,Correct to incorrect,-1.098876361,3.94,2.501854082,1.084,5.024,5.25,1.75,0.0411,876,748,0.876,0.748,13,6757,1084,5250,1750
70,2314,1,127,5,1.552,1.5,0.6463,0.7425,1,1,0.56,0.672,53,50,3,2,2.5,2.5,1.214,1.736,3,left,left,0.910331147,1.327180489,-0.54764869,0.742441771,5,Fixed,"Correct, no change",-0.491602583,-0.522,-0.434230423,1.214,1.736,2.5,2.5,0.0962,680,828,0.68,0.828,5,1517,1736,2500,2500
71,2315,1,129,5,1.8,2.935,0.5053,0.3383,1,1,0.878,0.773,52,50,2,2,3.75,1.25,1.084,3.498,2,left,left,0.104808189,-0.59820685,-1.107074771,0.480403499,5,Fixed,"Correct, no change",-0.491602583,-2.414,-1.679203951,1.084,3.498,3.75,1.25,-0.167,772,766,0.772,0.766,9,1483,3498,1250,3750
72,2316,1,130,5,1.571,4.602,0.4892,0.2387,1,0,0.76,0.722,49,50,1,1,1.25,3.75,3.492,0.848,-1,right,left,0.012830035,-1.07264668,-1.666500852,-0.305711318,5,Fixed,Correct to incorrect,-1.098876361,2.644,1.649060376,0.848,3.492,3.75,1.25,-0.2505,856,742,0.856,0.742,9,4342,1148,3750,1250
73,2317,1,131,5,1.227,2.134,0.4288,0.2413,1,0,1.134,1.753,49,50,1,2,3.5,3.5,3.738,2.335,-1,right,left,-0.332230863,-1.060261704,-1.666500852,-0.305711318,7,Fixed,Correct to incorrect,-0.491602583,1.403,0.83245776,2.335,3.738,3.5,3.5,-0.1875,890,706,0.89,0.706,13,3805,2466,3500,3500
74,2318,1,132,5,1.639,3.381,0.5155,0.2802,0,0,0.362,3.487,50,50,0,3,1.75,5.25,2.699,2.584,0,left,left,0.163080062,-0.874963417,-2.225926933,-0.043673045,7,Fixed,"Incorrect, no change",0.115671196,0.115,-0.015071788,2.699,2.584,1.75,5.25,-0.2353,622,854,0.622,0.854,11,3105,2584,5250,1750
75,2319,1,136,5,3.016,1.298,0.0983,0.3287,0,1,0.688,1.11,47,50,3,4,5.25,1.75,2.346,3.978,-3,left,right,-2.220353826,-0.64393599,-0.54764869,-0.829787862,7,Fixed,Incorrect to correct,0.722944974,-1.632,-1.16463244,2.346,3.978,5.25,1.75,0.2304,838,604,0.838,0.604,16,2622,4045,1750,5250
76,2320,1,137,5,1.681,1.01,0.4477,0.663,1,1,0.629,2.79,50,46,4,1,2.5,2.5,3.234,0.644,4,left,left,-0.224256509,0.948486047,0.011777391,1.004480043,5,Fixed,"Correct, no change",-1.098876361,2.59,1.613527305,3.234,0.644,2.5,2.5,0.2153,820,603,0.82,0.603,6,3300,644,2500,2500
77,2321,1,138,5,1.791,4.634,0.2453,0.4337,1,1,1.666,0.903,50,54,4,1,3.75,1.25,1.184,1.531,-4,right,right,-1.380553295,-0.14377352,0.011777391,-1.091826134,5,Fixed,"Correct, no change",-1.098876361,-0.347,-0.319076952,1.531,1.184,1.25,3.75,0.1884,734,852,0.734,0.852,6,1184,3145,1250,3750
78,2322,1,139,5,1.703,3.33,0.4135,0.4328,1,1,0.979,0.98,50,47,3,1,1.75,5.25,4.028,1.68,3,left,left,-0.419638673,-0.148060627,-0.54764869,0.742441771,7,Fixed,"Correct, no change",-1.098876361,2.348,1.454286505,4.028,1.68,1.75,5.25,0.0193,914,616,0.914,0.616,13,4673,1680,5250,1750
79,2323,1,141,5,2.032,3.527,0.5113,0.3567,1,1,1.183,0.452,52,50,2,3,3.5,3.5,3.082,2.484,2,left,left,0.139085761,-0.510559332,-1.107074771,0.480403499,7,Fixed,"Correct, no change",0.115671196,0.598,0.302751793,3.082,2.484,3.5,3.5,-0.1546,930,636,0.93,0.636,16,3398,2484,3500,3500
80,2324,1,142,5,2.679,1.234,0.2675,0.4138,0,1,1.48,0.723,48,50,2,4,2.5,2.5,2.001,1.926,-2,left,right,-1.253726276,-0.238566217,-1.107074771,-0.56774959,5,Fixed,Incorrect to correct,0.722944974,0.075,-0.041392581,2.001,1.926,2.5,2.5,0.1463,868,680,0.868,0.68,6,2244,2113,2500,2500
81,2325,1,143,5,1.878,1.569,0.6388,0.639,1,1,1.005,0.361,53,50,3,1,3.5,3.5,2.713,3.444,3,left,left,0.867484181,0.834163197,-0.54764869,0.742441771,7,Fixed,"Correct, no change",-1.098876361,-0.731,-0.571756568,2.713,3.444,3.5,3.5,0.0002,860,603,0.86,0.603,14,3417,3444,3500,3500
82,2326,1,144,5,1.549,1.72,0.5797,0.4362,1,1,1.077,0.143,47,50,3,2,2.5,2.5,2.041,2.516,-3,right,right,0.52985009,-0.13186489,-0.54764869,-0.829787862,5,Fixed,"Correct, no change",-0.491602583,-0.475,-0.40330349,2.516,2.041,2.5,2.5,-0.1435,898,729,0.898,0.729,11,2310,2516,2500,2500
83,2327,1,147,6,2.533,1.783,0.2618,0.2403,1,1,0.364,0.675,51,50,1,1,1.75,5.25,3.874,2.061,1,left,left,-1.28628997,-1.065025156,-1.666500852,0.218365227,7,Fixed,"Correct, no change",-1.098876361,1.813,1.102245893,3.874,2.061,1.75,5.25,-0.0215,952,578,0.952,0.578,15,3940,2360,5250,1750
84,2328,1,148,6,2.841,3.286,0.4297,0.3295,0,0,0.662,1.521,50,49,1,3,1.75,5.25,4.406,1.366,1,right,right,-0.327089227,-0.640125229,-1.666500852,0.218365227,7,Fixed,"Incorrect, no change",0.115671196,3.04,1.909636231,1.366,4.406,5.25,1.75,-0.1002,1179,652,1.179,0.652,13,4406,1729,5250,1750
85,2329,1,150,6,1.971,1.588,0.1087,0.1585,1,1,0.558,1.165,48,50,2,3,1.75,5.25,4.39,1.531,-2,right,right,-2.160939366,-1.454675538,-1.107074771,-0.56774959,7,Fixed,"Correct, no change",0.115671196,2.859,1.79053464,1.531,4.39,5.25,1.75,0.0498,750,826,0.75,0.826,16,4390,1930,5250,1750
86,2330,1,151,6,1.241,1.755,0.5048,0.5838,0,0,0.824,0.922,50,51,1,1,1.75,5.25,3.218,1.72,-1,left,left,0.101951724,0.571220641,-1.666500852,-0.305711318,7,Fixed,"Incorrect, no change",-1.098876361,1.498,0.894969645,3.218,1.72,1.75,5.25,0.079,590,808,0.59,0.808,8,3285,1720,5250,1750
87,2331,1,152,6,2.053,1.29,0.5583,0.3288,0,0,1.158,0.746,50,52,2,2,1.25,3.75,2.15,1.584,-2,left,left,0.407593414,-0.643459645,-1.107074771,-0.56774959,5,Fixed,"Incorrect, no change",-0.491602583,0.566,0.281695158,2.15,1.584,1.25,3.75,-0.2295,771,980,0.771,0.98,8,2476,1584,3750,1250
88,2332,1,153,6,1.205,0.911,0.4022,0.413,0,1,1.011,0.689,50,53,3,1,5.25,1.75,1.658,0.976,-3,left,right,-0.484194769,-0.242376978,-0.54764869,-0.829787862,7,Fixed,Incorrect to correct,-1.098876361,0.682,0.358025459,1.658,0.976,5.25,1.75,0.0108,660,844,0.66,0.844,7,1658,1042,1750,5250
89,2333,1,154,6,0.947,0.91,0.219,0.3217,0,1,1.694,0.783,50,54,4,1,2.5,2.5,1.202,2.316,-4,left,right,-1.530803322,-0.677280155,0.011777391,-1.091826134,5,Fixed,Incorrect to correct,-1.098876361,-1.114,-0.823778165,1.202,2.316,2.5,2.5,0.1027,918,744,0.918,0.744,10,1202,2383,2500,2500
90,2334,1,155,6,1.219,1.324,0.7872,0.907,1,1,1.077,0.962,50,55,5,1,3.75,1.25,0.892,0.978,-5,right,right,1.715282812,2.11076836,0.571203472,-1.353864406,5,Fixed,"Correct, no change",-1.098876361,-0.086,-0.147333775,0.978,0.892,1.25,3.75,0.1198,904,422,0.904,0.422,4,892,1045,1250,3750
91,2335,1,158,6,1.282,0.895,0.6442,0.8228,1,1,1.385,0.72,50,43,7,1,1.75,5.25,0.646,1.5,7,left,left,0.898333997,1.709685693,1.690055635,1.79059486,7,Fixed,"Correct, no change",-1.098876361,-0.854,-0.652693008,0.646,1.5,1.75,5.25,0.1786,424,856,0.424,0.856,6,713,1500,5250,1750
92,2336,1,160,6,1.087,2.268,0.2562,0.2895,0,1,0.645,1.09,44,50,6,1,2.5,2.5,2.27,1.652,-6,left,right,-1.318282371,-0.830663313,1.130629553,-1.615902679,5,Fixed,Incorrect to correct,-1.098876361,0.618,0.31591219,2.27,1.652,2.5,2.5,0.0333,552,818,0.552,0.818,11,2270,1718,2500,2500
93,2337,1,161,6,1.287,3.561,0.1795,0.2912,1,1,0.59,0.738,43,50,7,1,1.25,3.75,3.906,0.997,-7,right,right,-1.756464009,-0.822565444,1.690055635,-1.877940951,5,Fixed,"Correct, no change",-1.098876361,2.909,1.823435632,0.997,3.906,3.75,1.25,0.1117,751,866,0.751,0.866,9,3906,2565,3750,1250
94,2338,1,164,6,1.355,2.94,0.6053,0.831,1,1,0.839,0.987,44,50,6,1,1.25,3.75,3.53,0.962,-6,right,right,0.676101067,1.748746,1.130629553,-1.615902679,5,Fixed,"Correct, no change",-1.098876361,2.568,1.599050868,0.962,3.53,3.75,1.25,0.2257,1480,740,1.48,0.74,11,3530,1719,3750,1250
95,2339,1,165,6,1.105,1.361,0.8508,0.3737,1,1,1.065,0.628,55,50,5,3,3.75,1.25,1.21,2.901,5,left,left,2.078625083,-0.429580646,0.571203472,1.266518316,5,Fixed,"Correct, no change",0.115671196,-1.691,-1.20345561,1.21,2.901,3.75,1.25,-0.4771,476,858,0.476,0.858,11,1277,3110,1250,3750
96,2340,1,167,6,1.346,2.594,0.1793,0.1432,0,0,0.684,0.499,50,46,4,3,3.5,3.5,2.624,3.494,4,right,right,-1.757606594,-1.527556355,0.011777391,1.004480043,7,Fixed,"Incorrect, no change",0.115671196,-0.87,-0.663221325,3.494,2.624,3.5,3.5,-0.0361,904,648,0.904,0.648,14,2828,3561,3500,3500
97,2341,1,168,7,1.52,1.67,0.1748,0.0912,0,1,0.594,1.012,55,50,5,3,5.25,1.75,2.11,4.048,5,right,left,-1.783314774,-1.775255865,0.571203472,1.266518316,7,Fixed,Incorrect to correct,0.115671196,-1.938,-1.36598651,4.048,2.11,1.75,5.25,-0.0836,914,729,0.914,0.729,16,2176,4242,1750,5250
98,2342,1,169,7,2.321,0.887,0.6323,0.7832,1,1,0.436,0.884,50,56,6,1,3.5,3.5,2.96,1.13,-6,right,right,0.830350144,1.52105299,1.130629553,-1.615902679,7,Fixed,"Correct, no change",-1.098876361,1.83,1.11343223,1.13,2.96,3.5,3.5,0.1509,862,584,0.862,0.584,9,2960,1197,3500,3500
99,2343,1,171,7,1.833,1.366,0.2035,0.1757,1,1,0.788,0.887,45,50,5,1,3.75,1.25,0.964,3.7,-5,right,right,-1.619353718,-1.372744162,0.571203472,-1.353864406,5,Fixed,"Correct, no change",-1.098876361,-2.736,-1.891086338,3.7,0.964,1.25,3.75,-0.0278,626,846,0.626,0.846,10,1210,3890,1250,3750
100,2344,1,172,7,0.776,1.385,0.6987,0.5033,1,1,0.999,1.104,55,50,5,2,3.75,1.25,1.392,2.034,5,left,left,1.209688615,0.187762746,0.571203472,1.266518316,5,Fixed,"Correct, no change",-0.491602583,-0.642,-0.513192803,1.392,2.034,3.75,1.25,-0.1954,528,862,0.528,0.862,4,1459,2378,1250,3750
101,2345,1,173,7,0.738,1.664,0.5413,0.4462,1,0,0.759,1.236,46,50,4,2,3.75,1.25,1.36,1.485,-4,right,left,0.310473625,-0.084230369,0.011777391,-1.091826134,5,Fixed,Correct to incorrect,-0.491602583,-0.125,-0.172996548,1.485,1.36,1.25,3.75,-0.0951,922,464,0.922,0.464,7,1427,1766,1250,3750
102,2346,1,176,7,1.203,1.326,0.563,0.6362,1,1,0.933,1.512,46,50,4,2,3.5,3.5,2.567,3.132,-4,right,right,0.434444179,0.820825531,0.011777391,-1.091826134,7,Fixed,"Correct, no change",-0.491602583,-0.565,-0.462525276,3.132,2.567,3.5,3.5,0.0732,918,592,0.918,0.592,15,2567,3198,3500,3500
103,2347,1,177,7,1.285,1.95,0.3847,0.275,1,0,1.344,0.907,50,46,4,1,1.75,5.25,5.196,1.3,4,left,right,-0.584171022,-0.899733368,0.011777391,1.004480043,7,Fixed,Correct to incorrect,-1.098876361,3.896,2.47290121,5.196,1.3,1.75,5.25,-0.1097,936,751,0.936,0.751,12,5196,1657,5250,1750
104,2348,1,178,7,3.537,1.689,0.5845,0.6663,0,0,0.366,1.805,50,53,3,4,3.5,3.5,3.344,2.9,-3,left,left,0.557272148,0.964205439,-0.54764869,-0.829787862,7,Fixed,"Incorrect, no change",0.722944974,0.444,0.201416738,3.344,2.9,3.5,3.5,0.0818,556,830,0.556,0.83,12,3766,2818,3500,3500
105,2349,1,181,7,1.414,2.29,0.4352,0.373,0,1,0.32,0.601,45,50,5,1,3.75,1.25,1.595,2.084,-5,left,right,-0.295668119,-0.432915062,0.571203472,-1.353864406,5,Fixed,Incorrect to correct,-1.098876361,-0.489,-0.412515768,1.595,2.084,3.75,1.25,-0.0622,632,838,0.632,0.838,11,1595,2664,1250,3750
106,2350,1,182,7,0.959,1.875,0.7508,0.6297,1,1,0.612,0.486,44,50,6,3,5.25,1.75,1.572,3.682,-6,right,right,1.507332205,0.789863092,1.130629553,-1.615902679,7,Fixed,"Correct, no change",0.115671196,-2.11,-1.479165921,3.682,1.572,1.75,5.25,-0.1211,922,430,0.922,0.43,12,1572,3919,1750,5250
107,2351,1,183,7,2.164,1.735,0.3548,0.1233,0,1,0.349,1.192,50,56,6,1,3.5,3.5,2.851,3.204,-6,left,right,-0.754987593,-1.622349052,1.130629553,-1.615902679,7,Fixed,Incorrect to correct,-1.098876361,-0.353,-0.323025071,2.851,3.204,3.5,3.5,-0.2315,578,854,0.578,0.854,20,2932,3271,3500,3500
108,2352,1,185,7,1.958,1.597,0.6243,0.6082,1,1,0.373,0.889,50,57,7,5,3.75,1.25,1.478,2.578,-7,right,right,0.784646714,0.687448872,1.690055635,-1.877940951,5,Fixed,"Correct, no change",1.330218753,-1.1,-0.814565888,2.578,1.478,1.25,3.75,-0.0161,764,854,0.764,0.854,6,1818,2645,1250,3750
109,2353,1,187,7,0.885,1.491,0.5792,0.6648,1,1,1.026,0.772,56,50,6,4,1.75,5.25,4.61,1.763,6,left,left,0.526993626,0.957060261,1.130629553,1.528556588,7,Fixed,"Correct, no change",0.722944974,2.847,1.782638402,4.61,1.763,1.75,5.25,0.0856,426,830,0.426,0.83,16,4677,1939,5250,1750
110,2354,1,188,7,1.312,0.735,0.3787,0.4955,1,1,0.702,3.385,50,55,5,3,2.5,2.5,1.98,1.632,-5,right,right,-0.618448595,0.15060782,0.571203472,-1.353864406,5,Fixed,"Correct, no change",0.115671196,0.348,0.138246834,1.632,1.98,2.5,2.5,0.1168,698,786,0.698,0.786,8,1980,1698,2500,2500
111,2355,1,189,8,1.025,1.695,0.3068,0.593,1,1,0.562,1.23,50,45,5,1,2.5,2.5,1.172,2.148,5,left,left,-1.029208175,0.6150444,0.571203472,1.266518316,5,Fixed,"Correct, no change",-1.098876361,-0.976,-0.732971428,1.172,2.148,2.5,2.5,0.2862,940,672,0.94,0.672,7,1595,2148,2500,2500
112,2356,1,190,8,2.051,1.497,0.5535,0.5218,1,0,1.252,1.759,54,50,4,2,5.25,1.75,2.184,1.94,4,left,right,0.380171356,0.27588661,0.011777391,1.004480043,7,Fixed,Correct to incorrect,-0.491602583,0.244,0.069812771,2.184,1.94,5.25,1.75,-0.0317,538,848,0.538,0.848,5,2184,2006,1750,5250
113,2357,1,191,8,1.35,1.978,0.2472,0.218,0,0,0.64,0.37,54,50,4,4,1.75,5.25,4.326,1.704,4,right,right,-1.36969873,-1.171250138,0.011777391,1.004480043,7,Fixed,"Incorrect, no change",0.722944974,2.622,1.63458394,1.704,4.326,5.25,1.75,-0.0292,726,862,0.726,0.862,15,4326,1771,5250,1750
114,2358,1,192,8,0.86,1.627,0.2943,0.2617,1,0,0.384,0.599,45,50,5,5,2.5,2.5,1.927,1.874,-5,right,left,-1.100619784,-0.963087281,0.571203472,-1.353864406,5,Fixed,Correct to incorrect,1.330218753,0.053,-0.055869017,1.874,1.927,2.5,2.5,-0.0326,1382,538,1.382,0.538,5,2174,1874,2500,2500
115,2359,1,195,8,1.03,1.011,0.81,0.8938,1,1,0.635,0.851,57,50,7,1,1.25,3.75,1.036,1.176,7,left,left,1.845537589,2.047890792,1.690055635,1.79059486,5,Fixed,"Correct, no change",-1.098876361,-0.14,-0.182866846,1.036,1.176,1.25,3.75,0.0838,426,808,0.426,0.808,4,1102,1176,3750,1250
116,2360,1,196,8,2.352,1.218,0.6833,0.8093,1,1,1.243,1.026,50,43,7,2,5.25,1.75,1.63,2.803,7,left,left,1.121709512,1.645379089,1.690055635,1.79059486,7,Fixed,"Correct, no change",-0.491602583,-1.173,-0.862601336,1.63,2.803,5.25,1.75,0.126,902,554,0.902,0.554,10,1696,2970,1750,5250
117,2361,1,199,8,2.256,1.346,0.5803,0.9025,1,1,1.006,0.869,55,50,5,5,5.25,1.75,2.8,3.098,5,left,left,0.533277847,2.089332825,0.571203472,1.266518316,7,Fixed,"Correct, no change",1.330218753,-0.298,-0.28683398,2.8,3.098,5.25,1.75,0.3222,954,712,0.954,0.712,10,3073,3098,1750,5250
118,2362,1,200,8,1.823,1.582,0.154,0.159,0,1,0.655,1.587,50,45,5,3,2.5,2.5,3.036,1.235,5,right,left,-1.902143693,-1.452293812,0.571203472,1.266518316,5,Fixed,Incorrect to correct,0.115671196,1.801,1.094349655,1.235,3.036,2.5,2.5,0.005,928,752,0.928,0.752,9,3103,1668,2500,2500
119,2363,1,201,8,1.868,1.45,0.3352,0.2507,0,1,0.702,0.792,50,56,6,4,2.5,2.5,2.263,1.894,-6,left,right,-0.866960997,-1.015485254,1.130629553,-1.615902679,5,Fixed,Incorrect to correct,0.722944974,0.369,0.152065251,2.263,1.894,2.5,2.5,-0.0845,720,712,0.72,0.712,9,2415,1960,2500,2500
120,2364,1,202,8,0.826,0.798,0.6533,0.7542,1,1,0.86,0.761,57,50,7,2,5.25,1.75,1.762,2.067,7,left,left,0.950321649,1.382912879,1.690055635,1.79059486,7,Fixed,"Correct, no change",-0.491602583,-0.305,-0.291440118,1.762,2.067,5.25,1.75,0.1009,486,842,0.486,0.842,9,1829,1485,1750,5250
121,2365,1,203,8,4.285,1.349,0.178,0.202,1,1,0.675,1.261,50,57,7,3,3.5,3.5,2.33,3.118,-7,right,right,-1.765033402,-1.247465372,1.690055635,-1.877940951,7,Fixed,"Correct, no change",0.115671196,-0.788,-0.609263699,3.118,2.33,3.5,3.5,0.024,776,748,0.776,0.748,15,2330,3476,3500,3500
122,2366,1,205,8,1.419,1.559,0.906,0.8915,1,1,0.907,1.18,56,50,6,1,3.75,1.25,0.948,3.558,6,left,left,2.393978752,2.036934852,1.130629553,1.528556588,5,Fixed,"Correct, no change",-1.098876361,-2.61,-1.808175839,0.948,3.558,3.75,1.25,-0.0145,614,832,0.614,0.832,10,1361,3558,1250,3750
123,2367,1,207,8,1.007,1.255,0.6482,0.8593,1,1,0.937,2.71,50,44,6,1,1.75,5.25,1.988,1.69,6,left,left,0.921185712,1.883551695,1.130629553,1.528556588,7,Fixed,"Correct, no change",-1.098876361,0.298,0.105345842,1.988,1.69,1.75,5.25,0.2111,556,912,0.556,0.912,7,2055,1978,5250,1750
124,2368,1,208,8,1.151,1.742,0.6283,0.2655,1,1,1.197,0.863,50,44,6,1,3.75,1.25,0.784,3.572,6,left,left,0.807498429,-0.944986163,1.130629553,1.528556588,5,Fixed,"Correct, no change",-1.098876361,-2.788,-1.92530337,0.784,3.572,3.75,1.25,-0.3628,600,860,0.6,0.86,11,1327,3572,1250,3750
125,2369,1,209,8,2.42,1.954,0.0892,0.1728,1,1,0.879,0.818,50,55,5,3,3.75,1.25,1.474,2.498,-5,right,right,-2.272341478,-1.386558173,0.571203472,-1.353864406,5,Fixed,"Correct, no change",0.115671196,-1.024,-0.76455638,2.498,1.474,1.25,3.75,0.0836,680,836,0.68,0.836,8,1474,2565,1250,3750
126,2370,2,23,0,1.453,2.012,0.9478,0.9245,1,1,0.671,0.86,50,54,4,1,3.5,3.5,3.048,2.091,-4,right,right,0.703446627,0.236455969,1.242430933,-1.366340207,7,Fixed,"Correct, no change",-0.918974305,0.957,0.331125941,2.091,3.048,3.5,3.5,-0.0233,934,747,0.934,0.747,7,3048,2350,3500,3500
127,2371,2,24,0,1.655,2.661,0.9477,0.9573,1,1,0.873,0.705,50,53,3,1,5.25,1.75,1.858,1.869,-3,right,right,0.7030621,0.402205355,0.40677454,-1.02086049,7,Fixed,"Correct, no change",-0.918974305,-0.011,-0.084671474,1.869,1.858,1.75,5.25,0.0096,761,890,0.761,0.89,5,1858,2205,1750,5250
128,2372,2,25,0,2.484,1.266,0.655,0.3532,1,0,0.473,1.459,50,47,3,2,1.75,5.25,4.036,1.642,3,left,right,-0.422448841,-2.650514277,0.40677454,1.052017812,7,Fixed,Correct to incorrect,-0.540750164,2.394,0.948378922,4.036,1.642,1.75,5.25,-0.3018,916,958,0.916,0.958,11,4277,1709,5250,1750
129,2373,2,27,0,1.631,1.137,0.9635,0.9633,1,1,0.552,0.75,49,50,1,1,2.5,2.5,2.58,1.532,-1,right,right,0.763817388,0.432525364,-1.264538245,-0.329901056,5,Fixed,"Correct, no change",-0.918974305,1.048,0.370214335,1.532,2.58,2.5,2.5,-0.0002,940,788,0.94,0.788,5,2580,1599,2500,2500
130,2374,2,28,0,1.758,1.374,0.9663,0.9427,0,0,0.824,2.164,50,49,1,2,3.75,1.25,1.12,2.292,1,right,right,0.774584148,0.328426665,-1.264538245,0.361058378,5,Fixed,"Incorrect, no change",-0.540750164,-1.172,-0.583370646,2.292,1.12,1.25,3.75,-0.0236,770,812,0.77,0.812,5,1120,2467,1250,3750
131,2375,2,29,0,1.863,1.487,0.0372,0.538,0,1,0.963,0.88,50,52,2,1,3.75,1.25,1.03,3.346,-2,left,right,-2.798057517,-1.716657982,-0.428881852,-0.675380773,5,Fixed,Incorrect to correct,-0.918974305,-2.316,-1.07476759,1.03,3.346,3.75,1.25,0.5008,796,778,0.796,0.778,5,1286,3413,1250,3750
132,2376,2,30,0,1.615,1.474,0.9182,0.9712,1,1,0.732,1.239,50,47,3,1,1.25,3.75,3.175,1.19,3,left,left,0.589626593,0.47244671,0.40677454,1.052017812,5,Fixed,"Correct, no change",-0.918974305,1.985,0.772695923,3.175,1.19,1.25,3.75,0.053,804,888,0.804,0.888,7,3471,1190,3750,1250
133,2377,2,35,0,1.575,1.412,0.8197,0.9353,0,1,1.206,4.176,50,45,5,2,2.5,2.5,2.223,2.346,5,right,left,0.21086736,0.291031986,2.078087326,1.742977246,5,Fixed,Incorrect to correct,-0.540750164,-0.123,-0.132780265,2.346,2.223,2.5,2.5,0.1156,886,746,0.886,0.746,8,2509,2346,2500,2500
134,2378,2,36,0,1.747,1.971,0.9103,0.9623,1,1,3.494,1.117,50,56,6,1,2.5,2.5,2.229,2.292,-6,right,right,0.559248949,0.427472029,2.913743719,-2.057299641,5,Fixed,"Correct, no change",-0.918974305,-0.063,-0.107007698,2.292,2.229,2.5,2.5,0.052,816,736,0.816,0.736,1,2472,2359,2500,2500
135,2379,2,37,0,1.699,1.507,0.9495,0.9608,1,1,0.533,0.962,50,55,5,1,3.5,3.5,3.422,2.965,-5,right,right,0.709983588,0.419892027,2.078087326,-1.711819924,7,Fixed,"Correct, no change",-0.918974305,0.457,0.116354549,2.965,3.422,3.5,3.5,0.0113,902,690,0.902,0.69,4,3422,3221,3500,3500
136,2380,2,38,0,1.77,1.596,0.9495,0.9647,1,1,0.736,0.693,45,50,5,2,1.75,5.25,5.15,1.454,-5,right,right,0.709983588,0.439600033,2.078087326,-1.711819924,7,Fixed,"Correct, no change",-0.540750164,3.696,1.507643626,1.454,5.15,5.25,1.75,0.0152,932,765,0.932,0.765,7,5150,1786,5250,1750
137,2381,2,40,0,1.709,1.768,0.9822,0.9687,1,1,0.569,0.564,45,50,5,1,5.25,1.75,1.36,4.62,-5,right,right,0.835723964,0.459813373,2.078087326,-1.711819924,7,Fixed,"Correct, no change",-0.918974305,-3.26,-1.480255978,4.62,1.36,1.75,5.25,-0.0135,980,664,0.98,0.664,10,1574,4686,1750,5250
138,2382,2,41,0,1.407,1.524,0.3468,0.9618,1,1,0.878,0.835,55,50,5,1,5.25,1.75,1.113,4.556,5,left,left,-1.607561489,0.424945362,2.078087326,1.742977246,7,Fixed,"Correct, no change",-0.918974305,-3.443,-1.558862308,1.113,4.556,5.25,1.75,0.615,842,749,0.842,0.749,8,1359,4556,1750,5250
139,2383,2,42,1,1.857,1.925,0.9717,0.9758,1,1,0.795,0.786,50,54,4,1,1.25,3.75,3.466,0.969,-4,right,right,0.795348614,0.495692051,1.242430933,-1.366340207,5,Fixed,"Correct, no change",-0.918974305,2.497,0.992621828,0.969,3.466,3.75,1.25,0.0041,918,760,0.918,0.76,4,3466,1304,3750,1250
140,2384,2,45,1,2.812,1.205,0.9473,0.937,1,1,0.894,0.451,47,50,3,1,3.75,1.25,0.802,3.414,-3,right,right,0.701523991,0.299622656,0.40677454,-1.02086049,5,Fixed,"Correct, no change",-0.918974305,-2.612,-1.201912254,3.414,0.802,1.25,3.75,-0.0103,948,772,0.948,0.772,2,1058,3481,1250,3750
141,2385,2,46,1,1.571,2.37,0.4928,0.2642,1,0,0.451,1.021,50,52,2,1,2.5,2.5,1.963,2.696,-2,right,left,-1.046151864,-3.100261086,-0.428881852,-0.675380773,5,Fixed,Correct to incorrect,-0.918974305,-0.733,-0.394801363,2.696,1.963,2.5,2.5,-0.2286,928,786,0.928,0.786,8,2342,2696,2500,2500
142,2386,2,49,1,1.438,1.54,0.6402,0.9638,0,0,0.357,1.037,51,50,1,1,3.5,3.5,3.456,3.268,1,right,right,-0.479358858,0.435052032,-1.264538245,0.361058378,7,Fixed,"Incorrect, no change",-0.918974305,0.188,0.00080754,3.268,3.456,3.5,3.5,0.3236,746,862,0.746,0.862,3,3456,3550,3500,3500
143,2387,2,50,1,1.887,1.691,0.9747,0.9723,1,1,0.972,1.022,50,52,2,1,1.75,5.25,4.866,1.447,-2,right,right,0.806884428,0.478005379,-0.428881852,-0.675380773,7,Fixed,"Correct, no change",-0.918974305,3.419,1.388660275,1.447,4.866,5.25,1.75,-0.0024,940,763,0.94,0.763,7,4866,1739,5250,1750
144,2388,2,51,1,1.522,1.645,0.6107,0.6978,1,0,2.386,1.043,52,50,2,1,3.75,1.25,0.703,3.356,2,left,right,-0.592794365,-0.90913506,-0.428881852,0.706538095,5,Fixed,Correct to incorrect,-0.918974305,-2.653,-1.219523508,0.703,3.356,3.75,1.25,0.0871,778,936,0.778,0.936,8,1128,3363,1250,3750
145,2389,2,52,1,1.517,1.82,0.9542,0.952,0,0,0.853,0.822,50,49,1,1,1.25,3.75,3.538,1.007,1,right,right,0.728056364,0.37542268,-1.264538245,0.361058378,5,Fixed,"Incorrect, no change",-0.918974305,2.531,1.007226283,1.007,3.538,3.75,1.25,-0.0022,794,854,0.794,0.854,2,3538,1369,3750,1250
146,2390,2,54,1,1.852,1.867,0.9532,0.5683,1,1,0.737,2.967,50,48,2,2,3.5,3.5,3.096,3.143,2,left,left,0.724211093,-1.563541934,-0.428881852,0.706538095,7,Fixed,"Correct, no change",-0.540750164,-0.047,-0.100135014,3.096,3.143,3.5,3.5,-0.3849,721,978,0.721,0.978,12,3162,3382,3500,3500
147,2391,2,55,1,1.459,1.758,0.3173,0.9452,0,0,1.265,0.995,50,49,1,1,2.5,2.5,2.434,1.39,1,right,right,-1.720996996,0.341060002,-1.264538245,0.361058378,5,Fixed,"Incorrect, no change",-0.918974305,1.044,0.368496163,1.39,2.434,2.5,2.5,0.6279,767,888,0.767,0.888,6,2434,1577,2500,2500
148,2392,2,57,1,1.372,1.519,0.9403,0.9658,0,0,0.714,1.041,50,52,2,1,5.25,1.75,1.195,5.356,-2,left,left,0.674607092,0.445158702,-0.428881852,-0.675380773,7,Fixed,"Incorrect, no change",-0.918974305,-4.161,-1.867274026,1.195,5.356,5.25,1.75,0.0255,780,944,0.78,0.944,8,1557,5356,1750,5250
149,2393,2,58,1,1.713,1.976,0.895,0.9598,1,1,0.769,0.666,50,53,3,1,5.25,1.75,1.43,4.648,-3,right,right,0.500416297,0.414838692,0.40677454,-1.02086049,7,Fixed,"Correct, no change",-0.918974305,-3.218,-1.462215181,4.648,1.43,1.75,5.25,0.0648,950,742,0.95,0.742,9,1430,4965,1750,5250
150,2394,2,59,1,1.715,1.755,0.9038,0.9413,1,1,0.933,2.85,47,50,3,1,1.25,3.75,2.98,0.887,-3,right,right,0.534254685,0.321351996,0.40677454,-1.02086049,5,Fixed,"Correct, no change",-0.918974305,2.093,0.819086544,0.887,2.98,3.75,1.25,0.0375,872,748,0.872,0.748,4,2980,1375,3750,1250
151,2395,2,60,1,1.654,1.131,0.7533,0.558,0,0,0.512,0.432,52,50,2,1,5.25,1.75,1.347,5.044,2,right,right,-0.044458662,-1.615591283,-0.428881852,0.706538095,7,Fixed,"Incorrect, no change",-0.918974305,-3.697,-1.667966175,5.044,1.347,1.75,5.25,-0.1953,1082,605,1.082,0.605,4,1571,5110,1750,5250
152,2396,2,62,1,1.798,1.514,0.919,0.6538,1,0,0.657,3.792,53,50,3,1,3.5,3.5,3.003,3.016,3,left,right,0.592702811,-1.131481797,0.40677454,1.052017812,7,Fixed,Correct to incorrect,-0.918974305,-0.013,-0.085530559,3.003,3.016,3.5,3.5,-0.2652,918,779,0.918,0.779,9,3238,3082,3500,3500
153,2397,2,63,2,1.212,1.449,0.3502,0.4528,0,0,0.574,3.692,50,52,2,2,3.75,1.25,1.114,3.308,-2,left,left,-1.594487566,-2.147202118,-0.428881852,-0.675380773,5,Fixed,"Incorrect, no change",-0.540750164,-2.194,-1.022363371,1.114,3.308,3.75,1.25,0.1026,1010,722,1.01,0.722,8,1484,3308,1250,3750
154,2398,2,66,2,1.678,1.516,0.135,0.9768,0,1,0.649,1.066,47,50,3,1,3.75,1.25,1.513,2.415,-3,left,right,-2.421989974,0.500745386,0.40677454,-1.02086049,5,Fixed,Incorrect to correct,-0.918974305,-0.902,-0.467394094,1.513,2.415,3.75,1.25,0.8418,1010,671,1.01,0.671,5,1513,2741,1250,3750
155,2399,2,68,2,1.977,1.752,0.9813,0.9817,1,1,1.02,1.059,50,53,3,1,1.25,3.75,3.473,0.976,-3,right,right,0.832263219,0.525506727,0.40677454,-1.02086049,5,Fixed,"Correct, no change",-0.918974305,2.497,0.992621828,0.976,3.473,3.75,1.25,0.0004,902,743,0.902,0.743,4,3686,1042,3750,1250
156,2400,2,69,2,1.938,1.889,0.639,0.9855,0,0,0.709,1.277,53,50,3,1,5.25,1.75,1.73,3.868,3,right,right,-0.483973184,0.5447094,0.40677454,1.052017812,7,Fixed,"Incorrect, no change",-0.918974305,-2.138,-0.998308975,3.868,1.73,1.75,5.25,0.3465,705,942,0.705,0.942,8,1730,4149,1750,5250
157,2401,2,70,2,1.79,1.962,0.1982,0.9872,1,1,0.471,0.799,54,50,4,1,1.25,3.75,3.444,0.904,4,left,left,-2.178968821,0.553300069,1.242430933,1.397497529,5,Fixed,"Correct, no change",-0.918974305,2.54,1.011092168,3.444,0.904,1.25,3.75,0.789,928,688,0.928,0.688,5,3511,1174,3750,1250
158,2402,2,71,2,1.577,1.987,0.9675,0.9758,1,1,0.742,0.633,54,50,4,1,1.75,5.25,5.194,1.269,4,left,left,0.779198474,0.495692051,1.242430933,1.397497529,7,Fixed,"Correct, no change",-0.918974305,3.925,1.606008924,5.194,1.269,1.75,5.25,0.0083,789,896,0.789,0.896,8,5261,1666,5250,1750
159,2403,2,72,2,1.949,2.291,0.9902,0.9878,1,1,1.019,0.824,50,47,3,1,1.25,3.75,3.394,0.883,3,left,left,0.866486135,0.55633207,0.40677454,1.052017812,5,Fixed,"Correct, no change",-0.918974305,2.511,0.998635427,3.394,0.883,1.25,3.75,-0.0024,938,758,0.938,0.758,8,3461,952,3750,1250
160,2404,2,73,2,1.647,1.337,0.983,0.9793,1,1,0.85,0.752,48,50,2,1,5.25,1.75,1.768,4.814,-2,right,right,0.838800181,0.513378723,-0.428881852,-0.675380773,7,Fixed,"Correct, no change",-0.918974305,-3.046,-1.388333822,4.814,1.768,1.75,5.25,-0.0037,773,924,0.773,0.924,5,1768,5151,1750,5250
161,2405,2,74,2,2.538,1.447,0.1438,0.961,0,1,0.45,3.952,48,50,2,2,1.75,5.25,4.567,1.67,-2,left,right,-2.388151585,0.420902694,-0.428881852,-0.675380773,7,Fixed,Incorrect to correct,-0.540750164,2.897,1.164438942,4.567,1.67,1.75,5.25,0.8172,796,920,0.796,0.92,6,4816,1736,5250,1750
162,2406,2,75,2,1.318,1.503,0.3707,0.8017,0,1,0.613,0.343,50,53,3,2,3.75,1.25,1.13,3.246,-3,left,right,-1.515659503,-0.384093561,0.40677454,-1.02086049,5,Fixed,Incorrect to correct,-0.540750164,-2.116,-0.988859033,1.13,3.246,3.75,1.25,0.431,793,894,0.793,0.894,6,1130,3554,1250,3750
163,2407,2,76,2,1.528,1.596,0.9028,0.9795,1,1,0.717,0.988,54,50,4,1,5.25,1.75,1.656,4.69,4,left,left,0.530409414,0.51438939,1.242430933,1.397497529,7,Fixed,"Correct, no change",-0.918974305,-3.034,-1.383179309,1.656,4.69,5.25,1.75,0.0767,914,764,0.914,0.764,3,1723,4944,1750,5250
164,2408,2,78,2,1.403,1.574,0.9258,0.935,1,1,0.469,3.09,53,50,3,1,1.25,3.75,2.729,1.166,3,left,left,0.618850656,0.289515986,0.40677454,1.052017812,5,Fixed,"Correct, no change",-0.918974305,1.563,0.591428868,2.729,1.166,1.25,3.75,0.0092,771,796,0.771,0.796,2,3019,1166,3750,1250
165,2409,2,82,2,1.556,1.66,0.805,0.9648,0,0,0.646,0.778,51,50,1,1,3.75,1.25,1.208,3.399,1,right,right,0.15434187,0.440105367,-1.264538245,0.361058378,5,Fixed,"Incorrect, no change",-0.918974305,-2.191,-1.021074742,3.399,1.208,1.25,3.75,0.1598,749,888,0.749,0.888,2,1208,3729,1250,3750
166,2410,2,83,2,1.437,1.681,0.9698,0.9437,1,1,0.6,2.803,48,50,2,1,3.5,3.5,3.37,3.181,-2,right,right,0.788042598,0.33348,-0.428881852,-0.675380773,7,Fixed,"Correct, no change",-0.918974305,0.189,0.001237083,3.181,3.37,3.5,3.5,-0.0261,974,667,0.974,0.667,4,3370,3439,3500,3500
167,2411,2,84,3,1.4,3.134,0.6243,0.98,0,1,0.454,0.957,48,50,2,1,3.5,3.5,3.328,2.617,-2,left,right,-0.540498673,0.516916058,-0.428881852,-0.675380773,7,Fixed,Incorrect to correct,-0.918974305,0.711,0.225458416,3.328,2.617,3.5,3.5,0.3557,938,718,0.938,0.718,5,3328,2894,3500,3500
168,2412,2,85,3,1.585,1.47,0.8602,0.2503,1,1,0.948,0.402,53,50,3,1,3.75,1.25,1.005,3.674,3,left,left,0.366600852,-3.170502442,0.40677454,1.052017812,5,Fixed,"Correct, no change",-0.918974305,-2.669,-1.226396193,1.005,3.674,3.75,1.25,-0.6099,916,777,0.916,0.777,3,1409,3674,1250,3750
169,2413,2,86,3,1.441,1.481,0.9555,0.9783,1,1,0.82,1.248,50,53,3,1,1.75,5.25,5.032,1.452,-3,right,right,0.733055217,0.508325388,0.40677454,-1.02086049,7,Fixed,"Correct, no change",-0.918974305,3.58,1.457816663,1.452,5.032,5.25,1.75,0.0228,886,730,0.886,0.73,3,5032,1785,5250,1750
170,2414,2,87,3,1.876,1.685,0.0572,0.9585,0,1,0.566,0.97,52,50,2,2,2.5,2.5,2.476,2.464,2,right,left,-2.721152089,0.408269357,-0.428881852,0.706538095,5,Fixed,Incorrect to correct,-0.540750164,0.012,-0.07479199,2.464,2.476,2.5,2.5,0.9013,940,756,0.94,0.756,4,2811,2464,2500,2500
171,2415,2,89,3,2.249,1.87,0.3732,0.962,1,1,1.099,0.89,50,48,2,1,1.25,3.75,3.539,1.2,2,left,left,-1.506046324,0.425956029,-0.428881852,0.706538095,5,Fixed,"Correct, no change",-0.918974305,2.339,0.924754068,3.539,1.2,1.25,3.75,0.5888,780,948,0.78,0.948,2,3895,1200,3750,1250
172,2416,2,90,3,1.652,1.748,0.9707,0.988,0,0,0.652,1.439,50,49,1,1,1.25,3.75,3.142,1.31,1,right,right,0.791503342,0.557342737,-1.264538245,0.361058378,5,Fixed,"Incorrect, no change",-0.918974305,1.832,0.706975877,1.31,3.142,3.75,1.25,0.0173,900,770,0.9,0.77,7,3482,1096,3750,1250
173,2417,2,92,3,1.557,1.344,0.9833,0.9848,1,1,0.857,0.677,50,48,2,1,2.5,2.5,2.283,2.752,2,left,left,0.839953762,0.541172065,-0.428881852,0.706538095,5,Fixed,"Correct, no change",-0.918974305,-0.469,-0.281402069,2.283,2.752,2.5,2.5,0.0015,770,922,0.77,0.922,3,2618,2752,2500,2500
174,2418,2,93,3,1.456,1.613,0.9807,0.9815,1,1,1.7,0.789,49,50,1,1,5.25,1.75,1.532,4.856,-1,right,right,0.829956056,0.52449606,-1.264538245,-0.329901056,7,Fixed,"Correct, no change",-0.918974305,-3.324,-1.507746716,4.856,1.532,1.75,5.25,0.0008,916,779,0.916,0.779,7,1776,4922,1750,5250
175,2419,2,97,3,1.335,1.46,0.8133,0.9898,1,1,1.11,1.328,49,50,1,1,3.75,1.25,0.792,3.552,-1,right,right,0.186257623,0.56643874,-1.264538245,-0.329901056,5,Fixed,"Correct, no change",-0.918974305,-2.76,-1.265484586,3.552,0.792,1.25,3.75,0.1765,918,776,0.918,0.776,3,792,3619,1250,3750
176,2420,2,99,3,1.175,1.247,0.9752,0.9883,1,1,0.75,0.806,49,50,1,1,2.5,2.5,2.234,2.368,-1,right,right,0.808807064,0.558858738,-1.264538245,-0.329901056,5,Fixed,"Correct, no change",-0.918974305,-0.134,-0.137505236,2.368,2.234,2.5,2.5,0.0131,956,746,0.956,0.746,3,2492,2434,2500,2500
177,2421,2,100,3,1.375,1.451,0.9707,0.247,1,1,0.709,0.82,50,51,1,1,1.75,5.25,4.228,1.568,-1,right,right,0.791503342,-3.187178447,-1.264538245,-0.329901056,7,Fixed,"Correct, no change",-0.918974305,2.66,1.062637302,1.568,4.228,5.25,1.75,-0.7237,762,924,0.762,0.924,6,4460,1635,5250,1750
178,2422,2,101,3,1.396,1.474,0.1862,0.9858,0,0,0.629,0.572,50,50,0,1,1.75,5.25,3.993,2.053,0,right,left,-2.225112077,0.5462254,-2.100194638,0.015578661,7,Fixed,"Incorrect, no change",-0.918974305,1.94,0.753366498,2.053,3.993,5.25,1.75,0.7996,964,701,0.964,0.701,7,4305,2053,5250,1750
179,2423,2,103,3,1.349,1.464,0.9865,0.8728,1,1,1.864,0.566,51,50,1,1,3.5,3.5,3.217,3.162,1,left,left,0.852258631,-0.024801447,-1.264538245,0.361058378,7,Fixed,"Correct, no change",-0.918974305,0.055,-0.05632165,3.217,3.162,3.5,3.5,-0.1137,798,928,0.798,0.928,9,3540,3162,3500,3500
180,2424,2,104,3,1.89,1.804,0.9712,0.9897,0,0,0.635,0.959,50,50,0,1,3.5,3.5,3.332,2.873,0,right,right,0.793425978,0.565933406,-2.100194638,0.015578661,7,Fixed,"Incorrect, no change",-0.918974305,0.459,0.117213635,2.873,3.332,3.5,3.5,0.0185,938,774,0.938,0.774,7,3332,3198,3500,3500
181,2425,2,105,4,1.223,1.361,0.8333,0.9865,0,1,0.408,0.954,49,50,1,1,1.75,5.25,3.821,1.746,-1,left,right,0.263163051,0.549762735,-1.264538245,-0.329901056,7,Fixed,Incorrect to correct,-0.918974305,2.075,0.811354774,3.821,1.746,1.75,5.25,0.1532,785,932,0.785,0.932,2,4050,1813,5250,1750
182,2426,2,106,4,1.647,1.445,0.8322,0.9855,1,1,0.438,1.064,50,52,2,1,3.5,3.5,3.186,2.935,-2,right,right,0.258933252,0.5447094,-0.428881852,-0.675380773,7,Fixed,"Correct, no change",-0.918974305,0.251,0.027868736,2.935,3.186,3.5,3.5,0.1533,952,789,0.952,0.789,7,3186,3235,3500,3500
183,2427,2,107,4,1.35,1.144,0.9002,0.1233,1,1,0.782,0.75,48,50,2,2,3.5,3.5,3.41,3.135,-2,right,right,0.520411708,-3.812275978,-0.428881852,-0.675380773,7,Fixed,"Correct, no change",-0.540750164,0.275,0.038177763,3.135,3.41,3.5,3.5,-0.7769,802,602,0.802,0.602,8,3410,3362,3500,3500
184,2428,2,109,4,1.357,1.634,0.9488,0.9872,0,0,0.394,0.674,50,49,1,3,2.5,2.5,2.034,2.548,1,right,right,0.707291899,0.553300069,-1.264538245,0.361058378,5,Fixed,"Incorrect, no change",-0.162526023,-0.514,-0.300731494,2.548,2.034,2.5,2.5,0.0384,938,770,0.938,0.77,1,2034,2870,2500,2500
185,2429,2,112,4,1.749,1.485,0.9692,0.9627,1,1,0.521,0.51,47,50,3,1,5.25,1.75,1.214,5.102,-3,right,right,0.785735435,0.429493363,0.40677454,-1.02086049,7,Fixed,"Correct, no change",-0.918974305,-3.888,-1.750008846,5.102,1.214,1.75,5.25,-0.0065,902,774,0.902,0.774,7,1542,5169,1750,5250
186,2430,2,113,4,1.39,1.559,0.54,0.9717,1,1,0.691,0.794,53,50,3,1,1.75,5.25,4.248,1.624,3,left,left,-0.864655053,0.474973378,0.40677454,1.052017812,7,Fixed,"Correct, no change",-0.918974305,2.624,1.047173762,4.248,1.624,1.75,5.25,0.4317,938,782,0.938,0.782,6,4581,1624,5250,1750
187,2431,2,114,4,1.364,1.396,0.5252,0.5608,0,0,0.589,0.417,52,50,2,1,3.75,1.25,0.861,4.034,2,right,right,-0.92156507,-1.601441946,-0.428881852,0.706538095,5,Fixed,"Incorrect, no change",-0.918974305,-3.173,-1.442885756,4.034,0.861,1.25,3.75,0.0356,792,920,0.792,0.92,4,1100,4101,1250,3750
188,2432,2,115,4,1.483,1.614,0.4902,0.955,1,1,0.418,1.961,47,50,3,1,1.75,5.25,5.308,1.371,-3,right,right,-1.056149569,0.390582684,0.40677454,-1.02086049,7,Fixed,"Correct, no change",-0.918974305,3.937,1.611163437,1.371,5.308,5.25,1.75,0.4648,786,908,0.786,0.908,5,5308,1652,5250,1750
189,2433,2,116,4,1.957,1.778,0.5077,0.9715,1,1,0.417,2.204,50,53,3,1,2.5,2.5,2.217,2.464,-3,right,right,-0.98885732,0.473962711,0.40677454,-1.02086049,5,Fixed,"Correct, no change",-0.918974305,-0.247,-0.186043571,2.464,2.217,2.5,2.5,0.4638,930,782,0.93,0.782,2,2472,2530,2500,2500
190,2434,2,117,4,1.347,1.335,0.9873,0.9895,1,1,0.711,0.802,48,50,2,1,2.5,2.5,1.997,2.024,-2,right,right,0.855334848,0.56492274,-0.428881852,-0.675380773,5,Fixed,"Correct, no change",-0.918974305,-0.027,-0.091544158,2.024,1.997,2.5,2.5,0.0022,918,746,0.918,0.746,0,2200,2090,2500,2500
191,2435,2,118,4,1.335,1.334,0.7592,0.558,0,0,0.344,0.44,50,52,2,1,2.5,2.5,2.172,2.182,-2,left,left,-0.02177156,-1.615591283,-0.428881852,-0.675380773,5,Fixed,"Incorrect, no change",-0.918974305,-0.01,-0.084241931,2.172,2.182,2.5,2.5,-0.2012,779,934,0.779,0.934,2,2239,2286,2500,2500
192,2436,2,119,4,1.603,1.563,0.8178,0.9795,1,1,1.743,0.696,50,53,3,1,2.5,2.5,2.222,2.813,-3,right,right,0.203561344,0.51438939,0.40677454,-1.02086049,5,Fixed,"Correct, no change",-0.918974305,-0.591,-0.333806288,2.813,2.222,2.5,2.5,0.1617,738,908,0.738,0.908,4,2472,2880,2500,2500
193,2437,2,121,4,1.422,1.253,0.2445,0.9832,0,0,0.356,2.344,48,50,2,1,5.25,1.75,1.498,5.02,-2,left,left,-2.000932754,0.533086729,-0.428881852,-0.675380773,7,Fixed,"Incorrect, no change",-0.918974305,-3.522,-1.592796188,1.498,5.02,5.25,1.75,0.7387,920,770,0.92,0.77,6,1771,5020,1750,5250
194,2438,2,125,4,1.525,1.714,0.9783,0.983,1,1,0.572,1.422,45,50,5,1,1.75,5.25,4.929,1.821,-5,right,right,0.820727405,0.532076062,2.078087326,-1.711819924,7,Fixed,"Correct, no change",-0.918974305,3.108,1.255072469,1.821,4.929,5.25,1.75,0.0047,964,732,0.964,0.732,5,5186,1888,5250,1750
195,2439,2,126,5,1.268,1.813,0.9737,0.9868,1,1,3.586,0.894,46,50,4,1,1.25,3.75,3.441,1.562,-4,right,right,0.803039157,0.551278735,1.242430933,-1.366340207,5,Fixed,"Correct, no change",-0.918974305,1.879,0.727164388,1.562,3.441,3.75,1.25,0.0131,924,781,0.924,0.781,7,3680,1628,3750,1250
196,2440,2,127,5,4.266,1.626,0.9017,0.9745,0,0,0.542,1,54,50,4,1,2.5,2.5,2.52,2.269,4,right,right,0.526179615,0.489122716,1.242430933,1.397497529,5,Fixed,"Incorrect, no change",-0.918974305,0.251,0.027868736,2.269,2.52,2.5,2.5,0.0728,904,775,0.904,0.775,2,2520,2587,2500,2500
197,2441,2,130,5,1.312,1.723,0.395,0.9758,1,1,0.798,0.842,54,50,4,2,3.5,3.5,3.471,3.432,4,left,left,-1.422219407,0.495692051,1.242430933,1.397497529,7,Fixed,"Correct, no change",-0.540750164,0.039,-0.063194334,3.471,3.432,3.5,3.5,0.5808,796,926,0.796,0.926,7,3779,3432,3500,3500
198,2442,2,132,5,1.826,2.033,0.946,0.4962,0,0,0.4,0.561,53,50,3,1,1.75,5.25,5.022,1.419,3,right,right,0.696525139,-1.927887382,0.40677454,1.052017812,7,Fixed,"Incorrect, no change",-0.918974305,3.603,1.467696147,1.419,5.022,5.25,1.75,-0.4498,809,904,0.809,0.904,2,5022,1755,5250,1750
199,2443,2,133,5,3.265,2.884,0.9857,0.9765,1,1,0.669,0.613,46,50,4,1,1.75,5.25,4.992,1.464,-4,right,right,0.849182413,0.499229385,1.242430933,-1.366340207,7,Fixed,"Correct, no change",-0.918974305,3.528,1.435480438,1.464,4.992,5.25,1.75,-0.0092,898,774,0.898,0.774,4,5250,1530,5250,1750
200,2444,2,134,5,3.265,1.666,0.7828,0.9058,1,1,0.287,0.802,46,50,4,3,3.75,1.25,1.233,3.348,-4,right,right,0.068976845,0.141958606,1.242430933,-1.366340207,5,Fixed,"Correct, no change",-0.162526023,-2.115,-0.988429491,3.348,1.233,1.25,3.75,0.123,792,926,0.792,0.926,4,1476,3415,1250,3750
201,2445,2,137,5,1.35,1.147,0.9708,0.9245,1,1,0.774,0.854,46,50,4,1,2.5,2.5,2.51,1.864,-4,right,right,0.791887869,0.236455969,1.242430933,-1.366340207,5,Fixed,"Correct, no change",-0.918974305,0.646,0.197538135,1.864,2.51,2.5,2.5,-0.0463,777,942,0.777,0.942,3,2510,1930,2500,2500
202,2446,2,139,5,1.48,1.364,0.9483,0.9418,1,1,0.625,3.55,47,50,3,1,5.25,1.75,1.596,4.292,-3,right,right,0.705369263,0.323878663,0.40677454,-1.02086049,7,Fixed,"Correct, no change",-0.918974305,-2.696,-1.237993848,4.292,1.596,1.75,5.25,-0.0065,844,779,0.844,0.779,5,1596,4572,1750,5250
203,2447,2,140,5,2.072,5.376,0.7868,0.9663,1,1,0.668,0.86,52,50,2,1,3.75,1.25,1.028,3.238,2,left,left,0.08435793,0.447685369,-0.428881852,0.706538095,5,Fixed,"Correct, no change",-0.918974305,-2.21,-1.029236055,1.028,3.238,3.75,1.25,0.1795,960,771,0.96,0.771,3,1094,3436,1250,3750
204,2448,2,141,5,1.333,3.315,0.9768,0.9768,1,1,0.506,0.915,48,50,2,1,3.5,3.5,2.855,3.142,-2,right,right,0.814959498,0.500745386,-0.428881852,-0.675380773,7,Fixed,"Correct, no change",-0.918974305,-0.287,-0.203225282,3.142,2.855,3.5,3.5,0,900,712,0.9,0.712,5,3076,3209,3500,3500
205,2449,2,142,5,1.437,3.563,0.957,0.9887,1,1,0.801,0.355,49,50,1,0,1.25,3.75,3.495,1.034,-1,right,right,0.738823124,0.560880072,-1.264538245,-0.329901056,5,Fixed,"Correct, no change",-1.297198446,2.461,0.977158288,1.034,3.495,3.75,1.25,0.0317,1146,759,1.146,0.759,2,3764,1101,3750,1250
206,2450,2,143,5,1.477,4.329,0.9623,0.1817,1,1,0.559,0.725,49,50,1,1,1.25,3.75,3.426,1.012,-1,right,right,0.759203063,-3.517161218,-1.264538245,-0.329901056,5,Fixed,"Correct, no change",-0.918974305,2.414,0.956969777,1.012,3.426,3.75,1.25,-0.7806,672,896,0.672,0.896,4,3426,1079,3750,1250
207,2451,2,144,5,1.118,1.424,0.9748,0.978,1,1,0.637,0.674,50,51,1,1,1.75,5.25,4.949,1.668,-1,right,right,0.807268955,0.506809388,-1.264538245,-0.329901056,7,Fixed,"Correct, no change",-0.918974305,3.281,1.329383371,1.668,4.949,5.25,1.75,0.0032,807,870,0.807,0.87,6,5202,1735,5250,1750
208,2452,2,145,5,1.91,1.119,0.8787,0.4127,1,1,0.359,0.444,49,50,1,1,3.5,3.5,3.366,3.236,-1,right,right,0.437738373,-2.349840849,-1.264538245,-0.329901056,7,Fixed,"Correct, no change",-0.918974305,0.13,-0.024105941,3.236,3.366,3.5,3.5,-0.466,904,747,0.904,0.747,8,3366,3527,3500,3500
209,2453,2,146,5,1.493,1.118,0.4825,0.9857,0,0,0.808,1.012,50,50,0,1,3.75,1.25,1.515,2.413,0,right,right,-1.085758159,0.545720067,-2.100194638,0.015578661,5,Fixed,"Incorrect, no change",-0.918974305,-0.898,-0.465675923,2.413,1.515,1.25,3.75,0.5032,956,703,0.956,0.703,4,1515,2709,1250,3750
210,2454,2,150,6,1.142,2.516,0.9827,0.8063,0,0,0.763,0.503,50,52,2,1,1.75,5.25,5.018,1.475,-2,left,left,0.837646599,-0.36084822,-0.428881852,-0.675380773,7,Fixed,"Incorrect, no change",-0.918974305,3.543,1.44192358,5.018,1.475,1.75,5.25,-0.1764,916,751,0.916,0.751,3,5085,2780,5250,1750
211,2455,2,151,6,1.304,1.414,0.9837,0.9585,1,0,1.11,1.884,53,50,3,1,3.75,1.25,1.114,3.415,3,left,right,0.841491871,0.408269357,0.40677454,1.052017812,5,Fixed,Correct to incorrect,-0.918974305,-2.301,-1.068324449,1.114,3.415,3.75,1.25,-0.0252,799,884,0.799,0.884,4,1114,3780,1250,3750
212,2456,2,152,6,1.958,1.436,0.9668,0.972,1,1,0.696,0.855,53,50,3,1,3.75,1.25,0.833,3.716,3,left,left,0.776506784,0.476489378,0.40677454,1.052017812,5,Fixed,"Correct, no change",-0.918974305,-2.883,-1.318318349,0.833,3.716,3.75,1.25,0.0052,787,942,0.787,0.942,3,1171,3716,1250,3750
213,2457,2,153,6,1.102,1.377,0.4623,0.9857,1,0,0.684,0.654,52,50,2,1,3.5,3.5,3.566,3.134,2,left,right,-1.163432642,0.545720067,-0.428881852,0.706538095,7,Fixed,Correct to incorrect,-0.918974305,0.432,0.10561598,3.566,3.134,3.5,3.5,0.5234,791,914,0.791,0.914,3,3566,3421,3500,3500
214,2458,2,154,6,1.441,1.338,0.7815,0.9888,0,1,0.34,0.962,52,50,2,1,2.5,2.5,2.2,2.789,2,right,left,0.063977992,0.561385405,-0.428881852,0.706538095,5,Fixed,Incorrect to correct,-0.918974305,-0.589,-0.332947203,2.789,2.2,2.5,2.5,0.2073,938,768,0.938,0.768,4,2513,2789,2500,2500
215,2459,2,158,6,1.333,1.848,0.542,0.9742,1,1,0.714,1.047,53,50,3,1,5.25,1.75,1.526,5.372,3,left,left,-0.85696451,0.487606715,0.40677454,1.052017812,7,Fixed,"Correct, no change",-0.918974305,-3.846,-1.73196805,1.526,5.372,5.25,1.75,0.4322,972,716,0.972,0.716,5,1793,5372,1750,5250
216,2460,2,159,6,1.149,1.496,0.9657,0.9702,1,1,0.535,0.375,50,53,3,1,3.5,3.5,3.28,3.241,-3,right,right,0.772276985,0.467393375,0.40677454,-1.02086049,7,Fixed,"Correct, no change",-0.918974305,0.039,-0.063194334,3.241,3.28,3.5,3.5,0.0045,906,748,0.906,0.748,2,3280,3505,3500,3500
217,2461,2,160,6,1.648,1.354,0.8463,0.8357,1,1,1.803,0.383,50,52,2,1,5.25,1.75,1.76,4.961,-2,right,right,0.313151579,-0.212280173,-0.428881852,-0.675380773,7,Fixed,"Correct, no change",-0.918974305,-3.201,-1.454912954,4.961,1.76,1.75,5.25,-0.0106,940,779,0.94,0.779,1,1760,5252,1750,5250
218,2462,2,161,6,1.165,1.206,0.7402,0.7517,0,1,0.872,0.382,50,48,2,1,2.5,2.5,2.24,2.688,2,right,left,-0.094831717,-0.636760307,-0.428881852,0.706538095,5,Fixed,Incorrect to correct,-0.918974305,-0.448,-0.27238167,2.688,2.24,2.5,2.5,0.0115,964,750,0.964,0.75,4,2587,2688,2500,2500
219,2463,2,162,6,1.273,1.656,0.9442,0.97,1,1,0.768,0.767,50,47,3,3,1.25,3.75,3.316,1.384,3,left,left,0.68960365,0.466382708,0.40677454,1.052017812,5,Fixed,"Correct, no change",-0.162526023,1.932,0.749930155,3.316,1.384,1.25,3.75,0.0258,785,922,0.785,0.922,4,3383,1646,3750,1250
220,2464,2,163,6,1.373,1.793,0.952,0.9568,1,1,0.398,0.788,53,50,3,1,1.25,3.75,3.547,1.302,3,left,left,0.719596767,0.399678687,0.40677454,1.052017812,5,Fixed,"Correct, no change",-0.918974305,2.245,0.884377047,3.547,1.302,1.25,3.75,0.0048,774,916,0.774,0.916,0,3931,1302,3750,1250
221,2465,2,165,6,1.373,1.596,0.7442,0.7825,0,0,0.363,0.439,48,50,2,2,3.75,1.25,1.008,3.599,-2,left,left,-0.079450632,-0.481117591,-0.428881852,-0.675380773,5,Fixed,"Incorrect, no change",-0.540750164,-2.591,-1.192891856,1.008,3.599,3.75,1.25,0.0383,796,902,0.796,0.902,8,1075,3855,1250,3750
222,2466,2,166,6,1.673,1.538,0.9798,0.9795,1,1,0.603,0.616,50,53,3,1,3.5,3.5,3.054,3.391,-3,right,right,0.826495312,0.51438939,0.40677454,-1.02086049,7,Fixed,"Correct, no change",-0.918974305,-0.337,-0.224702421,3.391,3.054,3.5,3.5,-0.0003,952,746,0.952,0.746,8,3054,3701,3500,3500
223,2467,2,167,6,1.251,1.578,0.974,0.9673,1,1,0.624,0.908,53,50,3,2,1.75,5.25,5.126,1.743,3,left,left,0.804192738,0.452738704,0.40677454,1.052017812,7,Fixed,"Correct, no change",-0.540750164,3.383,1.373196735,5.126,1.743,1.75,5.25,-0.0067,788,916,0.788,0.916,7,5321,2016,5250,1750
224,2468,2,169,7,1.408,1.422,0.9605,0.9308,1,1,0.754,0.42,50,52,2,2,1.75,5.25,5.294,1.806,-2,right,right,0.752281574,0.268291979,-0.428881852,-0.675380773,7,Fixed,"Correct, no change",-0.540750164,3.488,1.418298727,1.806,5.294,5.25,1.75,-0.0297,944,791,0.944,0.791,1,5294,2053,5250,1750
225,2469,2,170,7,1.318,1.363,0.6422,0.9448,1,1,0.859,0.668,50,51,1,1,3.75,1.25,1.014,4.134,-1,right,right,-0.471668315,0.339038668,-1.264538245,-0.329901056,5,Fixed,"Correct, no change",-0.918974305,-3.12,-1.420119988,4.134,1.014,1.25,3.75,0.3026,801,910,0.801,0.91,2,1228,4200,1250,3750
226,2470,2,171,7,1.352,1.534,0.7568,0.9638,1,0,0.352,1.197,49,50,1,1,2.5,2.5,2.742,2.274,-1,right,left,-0.031000212,0.435052032,-1.264538245,-0.329901056,5,Fixed,Correct to incorrect,-0.918974305,0.468,0.12107952,2.274,2.742,2.5,2.5,0.207,808,882,0.808,0.882,3,2808,2492,2500,2500
227,2471,2,172,7,1.827,1.42,0.8517,0.9795,0,0,0.377,0.957,50,50,0,2,1.75,5.25,4.316,1.494,0,right,right,0.333916045,0.51438939,-2.100194638,0.015578661,7,Fixed,"Incorrect, no change",-0.540750164,2.822,1.132223233,1.494,4.316,5.25,1.75,0.1278,958,752,0.958,0.752,7,4587,1561,5250,1750
228,2472,2,174,7,1.429,1.204,0.921,0.3958,1,1,0.588,1.562,52,50,2,1,2.5,2.5,2.828,2.234,2,left,left,0.600393353,-2.435242209,-0.428881852,0.706538095,5,Fixed,"Correct, no change",-0.918974305,0.594,0.175201911,2.828,2.234,2.5,2.5,-0.5252,944,780,0.944,0.78,3,2895,2424,2500,2500
229,2473,2,177,7,1.263,1.281,0.949,0.9038,1,1,0.339,1.039,50,53,3,1,2.5,2.5,2.245,2.372,-3,right,right,0.708060953,0.131851936,0.40677454,-1.02086049,5,Fixed,"Correct, no change",-0.918974305,-0.127,-0.134498436,2.372,2.245,2.5,2.5,-0.0452,634,926,0.634,0.926,3,2460,2439,2500,2500
230,2474,2,178,7,1.323,1.171,0.941,0.9587,1,1,0.408,0.537,48,50,2,1,1.75,5.25,4.728,1.528,-2,right,right,0.677298782,0.409280024,-0.428881852,-0.675380773,7,Fixed,"Correct, no change",-0.918974305,3.2,1.294590405,1.528,4.728,5.25,1.75,0.0177,916,772,0.916,0.772,4,5000,1594,5250,1750
231,2475,2,179,7,1.463,1.306,0.3677,0.1973,1,1,0.339,4.733,48,50,2,2,3.75,1.25,1.257,3.578,-2,right,right,-1.527195317,-3.438329193,-0.428881852,-0.675380773,5,Fixed,"Correct, no change",-0.540750164,-2.321,-1.076915304,3.578,1.257,1.25,3.75,-0.1704,774,900,0.774,0.9,2,1496,3644,1250,3750
232,2476,2,180,7,1.498,1.25,0.6862,0.3278,0,0,0.434,1.022,51,50,1,1,1.25,3.75,3.87,0.858,1,right,right,-0.302476373,-2.778868985,-1.264538245,0.361058378,5,Fixed,"Incorrect, no change",-0.918974305,3.012,1.213836362,0.858,3.87,3.75,1.25,-0.3584,964,737,0.964,0.737,1,3870,925,3750,1250
233,2477,2,181,7,1.368,1.969,0.9835,0.9642,1,1,0.735,0.841,50,52,2,1,1.75,5.25,3.068,2.118,-2,right,right,0.840722816,0.437073366,-0.428881852,-0.675380773,7,Fixed,"Correct, no change",-0.918974305,0.95,0.328119142,2.118,3.068,5.25,1.75,-0.0193,946,745,0.946,0.745,4,3310,2184,5250,1750
234,2478,2,182,7,1.251,1.484,0.5388,0.963,0,1,0.413,0.851,50,52,2,2,2.5,2.5,2.506,2.472,-2,left,right,-0.869269379,0.431009364,-0.428881852,-0.675380773,5,Fixed,Incorrect to correct,-0.540750164,0.034,-0.065342048,2.506,2.472,2.5,2.5,0.4242,787,922,0.787,0.922,2,2506,2775,2500,2500
235,2479,2,185,7,1.203,1.066,0.4658,0.3005,1,1,0.448,0.329,52,50,2,1,1.75,5.25,5.228,1.412,2,left,left,-1.149974192,-2.916825028,-0.428881852,0.706538095,7,Fixed,"Correct, no change",-0.918974305,3.816,1.55918876,5.228,1.412,1.75,5.25,-0.1653,1004,726,1.004,0.726,3,5295,1576,5250,1750
236,2480,2,186,7,1.402,0.893,0.7985,0.851,1,1,0.434,0.642,50,52,2,2,1.75,5.25,1.648,1.756,-2,right,right,0.129347606,-0.134964149,-0.428881852,-0.675380773,7,Fixed,"Correct, no change",-0.540750164,-0.108,-0.126337124,1.756,1.648,5.25,1.75,0.0525,956,768,0.956,0.768,3,1648,1823,5250,1750
237,2481,2,187,7,1.746,1.463,0.9123,0.9107,0,0,0.48,0.91,50,49,1,2,5.25,1.75,1.528,4.736,1,right,right,0.566939492,0.166719947,-1.264538245,0.361058378,7,Fixed,"Incorrect, no change",-0.540750164,-3.208,-1.457919753,4.736,1.528,1.75,5.25,-0.0016,986,767,0.986,0.767,5,1694,4803,1750,5250
238,2482,2,190,8,1.313,1.768,0.7765,0.9727,1,1,0.342,1.14,47,50,3,1,3.5,3.5,3.461,3.251,-3,right,right,0.044751635,0.480026713,0.40677454,-1.02086049,7,Fixed,"Correct, no change",-0.918974305,0.21,0.010257482,3.251,3.461,3.5,3.5,0.1962,940,773,0.94,0.773,3,3461,3511,3500,3500
239,2483,2,191,8,1.725,0.88,0.1965,0.9643,1,0,1.32,0.771,52,50,2,1,1.75,5.25,5.438,1.252,2,left,right,-2.185505782,0.437578699,-0.428881852,0.706538095,7,Fixed,Correct to incorrect,-0.918974305,4.186,1.71811959,5.438,1.252,1.75,5.25,0.7678,780,908,0.78,0.908,4,5438,1318,5250,1750
240,2484,2,194,8,1.493,1.551,0.568,0.9765,0,0,0.581,1.12,48,50,2,2,1.75,5.25,4.334,1.758,-2,left,left,-0.756987454,0.499229385,-0.428881852,-0.675380773,7,Fixed,"Incorrect, no change",-0.540750164,2.576,1.026555708,4.334,1.758,1.75,5.25,0.4085,803,898,0.803,0.898,1,4624,1758,5250,1750
241,2485,2,196,8,1.445,1.29,0.7553,0.7483,1,1,0.359,0.343,50,53,3,1,1.75,5.25,5.012,0.751,-3,right,right,-0.036768119,-0.653941646,0.40677454,-1.02086049,7,Fixed,"Correct, no change",-0.918974305,4.261,1.750335299,0.751,5.012,5.25,1.75,-0.007,906,767,0.906,0.767,6,5012,1068,5250,1750
242,2486,2,197,8,1.204,1.139,0.9785,0.9665,1,1,1.174,0.581,50,48,2,1,5.25,1.75,1.48,5.26,2,left,left,0.821496459,0.448696036,-0.428881852,0.706538095,7,Fixed,"Correct, no change",-0.918974305,-3.78,-1.703618226,1.48,5.26,5.25,1.75,-0.012,745,920,0.745,0.92,4,1802,5260,1750,5250
243,2487,2,199,8,1.341,1.353,0.9392,0.9813,1,1,0.438,0.924,50,53,3,1,1.25,3.75,4.025,0.836,-3,right,right,0.670377293,0.523485393,0.40677454,-1.02086049,5,Fixed,"Correct, no change",-0.918974305,3.189,1.289865435,0.836,4.025,3.75,1.25,0.0421,1006,764,1.006,0.764,3,4025,902,3750,1250
244,2488,2,201,8,1.435,1.814,0.1953,0.9547,0,0,0.344,1.06,52,50,2,1,2.5,2.5,2.21,2.688,2,right,right,-2.190120108,0.389066684,-0.428881852,0.706538095,5,Fixed,"Incorrect, no change",-0.918974305,-0.478,-0.285267954,2.688,2.21,2.5,2.5,0.7594,790,942,0.79,0.942,4,2410,2754,2500,2500
245,2489,2,202,8,1.442,1.294,0.9853,0.9715,1,1,0.852,0.775,47,50,3,1,1.25,3.75,3.558,1.303,-3,right,right,0.847644305,0.473962711,0.40677454,-1.02086049,5,Fixed,"Correct, no change",-0.918974305,2.255,0.888672475,1.303,3.558,3.75,1.25,-0.0138,964,788,0.964,0.788,1,3558,1613,3750,1250
246,2490,2,203,8,1.285,1.389,0.2042,0.9562,1,0,0.37,0.624,50,53,3,2,2.5,2.5,1.742,2.688,-3,right,left,-2.155897192,0.396646686,0.40677454,-1.02086049,5,Fixed,Correct to incorrect,-0.540750164,-0.946,-0.486293976,2.688,1.742,2.5,2.5,0.752,763,880,0.763,0.88,1,1915,2688,2500,2500
247,2491,2,205,8,2.489,1.725,0.1703,0.9342,1,1,0.524,0.539,50,47,3,2,3.5,3.5,1.354,3.6,3,left,left,-2.286251893,0.285473318,0.40677454,1.052017812,7,Fixed,"Correct, no change",-0.540750164,-2.246,-1.044699595,1.354,3.6,3.5,3.5,0.7639,773,916,0.773,0.916,2,1421,3600,3500,3500
248,2492,2,207,8,1.732,1.224,0.9377,0.7322,0,0,0.967,0.408,52,50,2,1,5.25,1.75,1.346,4.232,2,right,right,0.664609386,-0.735300338,-0.428881852,0.706538095,7,Fixed,"Incorrect, no change",-0.918974305,-2.886,-1.319606977,4.232,1.346,1.75,5.25,-0.2055,878,697,0.878,0.697,8,1578,4299,1750,5250
249,2493,2,208,8,1.246,1.817,0.9637,0.9617,1,1,0.39,0.871,53,50,3,1,1.25,3.75,2.764,1.178,3,left,left,0.764586442,0.424440028,0.40677454,1.052017812,5,Fixed,"Correct, no change",-0.918974305,1.586,0.601308352,2.764,1.178,1.25,3.75,-0.002,769,942,0.769,0.942,3,3061,1284,3750,1250
250,2494,2,209,8,1.395,1.216,0.9733,0.3548,1,1,0.692,0.327,47,50,3,1,2.5,2.5,2.842,2.226,-3,right,right,0.801501048,-2.642428941,0.40677454,-1.02086049,5,Fixed,"Correct, no change",-0.918974305,0.616,0.184651852,2.226,2.842,2.5,2.5,-0.6185,924,761,0.924,0.761,3,2842,2478,2500,2500
251,2495,7,23,0,2.746,1.467,0.7942,0.9133,1,1,0.76,1.134,43,50,7,1,2.5,2.5,2.064,2.155,-7,right,right,0.556297299,1.220448164,1.290037765,-1.339579883,5,Fixed,"Correct, no change",-0.855878247,-0.091,0.077053279,2.155,2.064,2.5,2.5,0.1191,619,966,0.619,0.966,7,2064,2550,2500,2500
252,2496,7,24,0,1.58,1.841,0.9862,0.9497,1,1,0.667,2.613,50,56,6,1,3.5,3.5,3.058,3.274,-6,right,right,1.566823378,1.401963572,0.785750275,-1.140385848,7,Fixed,"Correct, no change",-0.855878247,-0.216,0.01617382,3.274,3.058,3.5,3.5,-0.0365,688,666,0.688,0.666,17,3292,3341,3500,3500
253,2497,7,25,0,1.53,1.579,0.7032,0.7685,1,1,0.491,0.403,50,56,6,1,5.25,1.75,1.384,4.72,-6,right,right,0.077350043,0.498375881,0.785750275,-1.140385848,7,Fixed,"Correct, no change",-0.855878247,-3.336,-1.503377496,4.72,1.384,1.75,5.25,0.0653,884,650,0.884,0.65,19,1692,4893,1750,5250
254,2498,7,26,0,1.833,1.916,0.6813,0.5418,0,0,0.716,0.826,55,50,5,1,3.75,1.25,1.172,3.241,5,right,right,-0.037913088,-0.632106071,0.281462785,1.050748533,5,Fixed,"Incorrect, no change",-0.855878247,-2.069,-0.886303292,3.241,1.172,1.25,3.75,-0.1395,912,603,0.912,0.603,13,1172,3557,1250,3750
255,2499,7,28,0,4.649,0.836,0.5278,0.6338,0,0,1.234,0.358,56,50,6,1,5.25,1.75,1.464,4.296,6,right,right,-0.845807635,-0.173330863,0.785750275,1.249942567,7,Fixed,"Incorrect, no change",-0.855878247,-2.832,-1.257911514,4.296,1.464,1.75,5.25,0.106,714,764,0.714,0.764,11,1464,4362,1750,5250
256,2500,7,29,0,1.661,1.55,0.7503,0.9477,1,1,0.681,1.003,50,43,7,1,3.5,3.5,3.092,3.014,7,left,left,0.325244722,1.391990198,1.290037765,1.449136602,7,Fixed,"Correct, no change",-0.855878247,0.078,0.159362309,3.092,3.014,3.5,3.5,0.1974,772,654,0.772,0.654,17,3473,3014,3500,3500
257,2501,7,30,0,1.395,1.58,0.8535,0.9872,1,1,1.04,0.96,43,50,7,1,2.5,2.5,2.444,2.107,-7,right,right,0.868402489,1.588964336,1.290037765,-1.339579883,5,Fixed,"Correct, no change",-0.855878247,0.337,0.28550455,2.107,2.444,2.5,2.5,0.1337,910,664,0.91,0.664,12,2444,2599,2500,2500
258,2502,7,31,0,1.505,1.777,0.9857,0.9905,1,1,1.235,0.468,44,50,6,1,3.75,1.25,0.894,3.58,-6,right,right,1.564191799,1.605420403,0.785750275,-1.140385848,5,Fixed,"Correct, no change",-0.855878247,-2.686,-1.186804305,3.58,0.894,1.25,3.75,0.0048,888,656,0.888,0.656,11,1296,3646,1250,3750
259,2503,7,32,0,1.6,2.06,0.6717,0.7667,1,1,0.793,0.64,56,50,6,1,1.25,3.75,2.416,1.052,6,left,left,-0.088439392,0.489399844,0.785750275,1.249942567,5,Fixed,"Correct, no change",-0.855878247,1.364,0.785690191,2.416,1.052,1.25,3.75,0.095,764,689,0.764,0.689,7,3315,1052,3750,1250
260,2504,7,33,0,1.997,1.091,0.5807,0.5628,1,1,1.221,0.568,50,55,5,1,3.5,3.5,2.172,1.524,-5,right,right,-0.567386648,-0.527385643,0.281462785,-0.941191814,7,Fixed,"Correct, no change",-0.855878247,0.648,0.436972646,1.524,2.172,3.5,3.5,-0.0179,894,669,0.894,0.669,7,2172,1634,3500,3500
261,2505,7,34,0,2.742,0.815,0.7033,0.4882,0,0,1.075,0.273,55,50,5,2,3.75,1.25,1.122,2.946,5,right,right,0.077876359,-0.899392496,0.281462785,1.050748533,5,Fixed,"Incorrect, no change",-0.572161701,-1.824,-0.766979551,2.946,1.122,1.25,3.75,-0.2151,844,666,0.844,0.666,5,1122,3013,1250,3750
262,2506,7,37,0,1.607,2.417,0.9865,0.9612,1,1,0.657,5.371,50,45,5,1,5.25,1.75,1.358,4.698,5,left,left,1.568402325,1.459310473,0.281462785,1.050748533,7,Fixed,"Correct, no change",-0.855878247,-3.34,-1.505325639,1.358,4.698,5.25,1.75,-0.0253,675,886,0.675,0.886,16,1764,4698,1750,5250
263,2507,7,38,0,1.681,1.993,0.769,0.748,0,0,0.564,0.858,50,45,5,3,3.75,1.25,1.478,2.926,5,right,right,0.423665751,0.396148797,0.281462785,1.050748533,5,Fixed,"Incorrect, no change",-0.288445155,-1.448,-0.583854136,2.926,1.478,1.25,3.75,-0.021,914,648,0.914,0.648,10,1776,2926,1250,3750
264,2508,7,39,0,1.658,1.649,0.6925,0.5692,0,1,2.094,0.907,50,44,6,3,5.25,1.75,1.858,2.957,6,right,left,0.021034267,-0.495470846,0.785750275,1.249942567,7,Fixed,Incorrect to correct,-0.288445155,-1.099,-0.413878684,2.957,1.858,1.75,5.25,-0.1233,714,718,0.714,0.718,11,1925,3646,1750,5250
265,2509,7,43,1,1.752,1.831,0.9792,0.9848,1,1,2.662,0.851,50,58,8,1,1.25,3.75,3.468,0.952,-8,right,right,1.529981281,1.576996287,1.794325255,-1.538773918,5,Fixed,"Correct, no change",-0.855878247,2.516,1.346755292,0.952,3.468,3.75,1.25,0.0056,934,676,0.934,0.676,10,3468,1290,3750,1250
266,2510,7,44,1,1.877,1.44,0.4893,0.5385,0,0,0.985,0.862,50,57,7,0,3.5,3.5,3.126,3.111,-7,left,left,-1.048439166,-0.648562138,1.290037765,-1.339579883,7,Fixed,"Incorrect, no change",-1.139594792,0.015,0.128679061,3.126,3.111,3.5,3.5,0.0492,702,824,0.702,0.824,16,3193,3364,3500,3500
267,2511,7,45,1,1.439,4.467,0.7413,0.6847,1,1,1.128,0.603,58,50,8,1,3.5,3.5,3.298,3.056,8,left,left,0.277876312,0.080491507,1.794325255,1.648330637,7,Fixed,"Correct, no change",-0.855878247,0.242,0.23923616,3.298,3.056,3.5,3.5,-0.0566,682,786,0.682,0.786,10,3365,3304,3500,3500
268,2512,7,48,1,3.204,1.672,0.6953,0.5975,0,1,0.978,0.828,56,50,6,1,1.25,3.75,3.486,0.903,6,right,left,0.035771105,-0.354347603,0.785750275,1.249942567,5,Fixed,Incorrect to correct,-0.855878247,2.583,1.379386683,0.903,3.486,3.75,1.25,-0.0978,1062,555,1.062,0.555,14,3553,1200,3750,1250
269,2513,7,51,1,1.719,1.864,0.68,0.5838,0,0,0.955,0.343,43,50,7,1,3.5,3.5,3.015,3.594,-7,left,left,-0.044755191,-0.422665215,1.290037765,-1.339579883,7,Fixed,"Incorrect, no change",-0.855878247,-0.579,-0.160620132,3.015,3.594,3.5,3.5,-0.0962,574,940,0.574,0.94,18,3449,3594,3500,3500
270,2514,7,52,1,2.044,2.436,0.72,0.5438,1,1,1.29,0.53,42,50,8,1,1.25,3.75,3.39,0.925,-8,right,right,0.165771075,-0.622132697,1.794325255,-1.538773918,5,Fixed,"Correct, no change",-0.855878247,2.465,1.321916473,0.925,3.39,3.75,1.25,-0.1762,578,548,0.578,0.548,11,3390,1455,3750,1250
271,2515,7,53,1,2.743,1.434,0.592,0.7547,1,1,0.929,2.914,58,50,8,1,1.25,3.75,3.466,0.904,8,left,left,-0.507912977,0.4295596,1.794325255,1.648330637,5,Fixed,"Correct, no change",-0.855878247,2.562,1.369158934,3.466,0.904,1.25,3.75,0.1627,1064,519,1.064,0.519,14,3532,1094,3750,1250
272,2516,7,54,1,2.419,1.218,0.4815,0.3805,0,0,2.411,0.844,57,50,7,1,2.5,2.5,2.542,1.598,7,right,right,-1.089491788,-1.43645869,1.290037765,1.449136602,5,Fixed,"Incorrect, no change",-0.855878247,0.944,0.581135206,1.598,2.542,2.5,2.5,-0.101,912,610,0.912,0.61,9,2542,1665,2500,2500
273,2517,7,55,1,1.887,1.383,0.538,0.7723,1,1,1.068,0.834,58,50,8,1,5.25,1.75,1.429,4.884,8,left,left,-0.792123437,0.517325292,1.794325255,1.648330637,7,Fixed,"Correct, no change",-0.855878247,-3.455,-1.561334742,1.429,4.884,5.25,1.75,0.2343,926,655,0.926,0.655,17,1800,4884,1750,5250
274,2518,7,57,1,2.193,6.66,0.7387,0.7517,1,1,0.93,1.08,43,50,7,1,5.25,1.75,1.411,4.848,-7,right,right,0.264192104,0.414599539,1.290037765,-1.339579883,7,Fixed,"Correct, no change",-0.855878247,-3.437,-1.5525681,4.848,1.411,1.75,5.25,0.013,668,878,0.668,0.878,22,1708,4915,1750,5250
275,2519,7,58,1,1.776,3.763,0.716,0.4443,0,0,0.733,1.931,57,50,7,1,2.5,2.5,2.368,2.078,7,right,right,0.144718448,-1.118308057,1.290037765,1.449136602,5,Fixed,"Incorrect, no change",-0.855878247,0.29,0.262613873,2.078,2.368,2.5,2.5,-0.2717,814,652,0.814,0.652,12,2368,2933,2500,2500
276,2520,7,59,1,2.51,5.015,0.6903,0.7985,1,1,0.524,0.862,42,50,8,1,2.5,2.5,1.656,1.178,-8,right,right,0.009455322,0.647976492,1.794325255,-1.538773918,5,Fixed,"Correct, no change",-0.855878247,0.478,0.35417658,1.178,1.656,2.5,2.5,0.1082,816,648,0.816,0.648,5,1656,3178,2500,2500
277,2521,7,61,1,5.081,1.893,0.8727,0.4152,1,1,3.488,2.832,50,43,7,1,5.25,1.75,1.395,4.84,7,left,left,0.969455097,-1.26342065,1.290037765,1.449136602,7,Fixed,"Correct, no change",-0.855878247,-3.445,-1.556464385,1.395,4.84,5.25,1.75,-0.4575,628,896,0.628,0.896,20,1753,4840,1750,5250
278,2522,7,62,1,2.185,1.574,0.461,0.4073,1,1,0.88,1.398,50,57,7,1,3.5,3.5,3.052,3.02,-7,right,right,-1.1973865,-1.302815477,1.290037765,-1.339579883,7,Fixed,"Correct, no change",-0.855878247,0.032,0.136958668,3.02,3.052,3.5,3.5,-0.0537,658,1370,0.658,1.37,21,3052,3671,3500,3500
279,2523,7,66,2,4.173,1.74,0.5403,0.5692,1,1,3.221,3.04,45,50,5,1,3.75,1.25,1.126,3.206,-5,right,right,-0.780018177,-0.495470846,0.281462785,-0.941191814,5,Fixed,"Correct, no change",-0.855878247,-2.08,-0.891660684,3.206,1.126,1.25,3.75,0.0289,707,920,0.707,0.92,9,1126,3926,1250,3750
280,2524,7,68,2,2.458,3.166,0.7165,0.67,1,1,0.739,1.366,50,46,4,2,1.75,5.25,4.892,1.835,4,left,left,0.147350027,0.007187208,-0.222824705,0.851554498,7,Fixed,"Correct, no change",-0.572161701,3.057,1.610241594,4.892,1.835,1.75,5.25,-0.0465,504,1052,0.504,1.052,14,6033,2126,5250,1750
281,2525,7,69,2,1.411,1.812,0.7657,0.6038,0,0,0.703,0.394,47,50,3,1,2.5,2.5,2.143,2.615,-3,left,left,0.406297334,-0.322931474,-0.727112195,-0.542803744,5,Fixed,"Incorrect, no change",-0.855878247,-0.472,-0.108507314,2.143,2.615,2.5,2.5,-0.1619,776,637,0.776,0.637,11,2591,2615,2500,2500
282,2526,7,70,2,1.621,2.379,0.7492,0.749,1,1,1.461,0.909,50,54,4,1,5.25,1.75,1.396,4.902,-4,right,right,0.319455249,0.401135484,-0.222824705,-0.741997779,7,Fixed,"Correct, no change",-0.855878247,-3.506,-1.586173562,4.902,1.396,1.75,5.25,-0.0002,972,562,0.972,0.562,17,1710,4969,1750,5250
283,2527,7,73,2,1.868,1.621,0.4808,0.565,1,1,1.725,2.907,50,44,6,1,3.75,1.25,1.19,3.334,6,left,left,-1.093175998,-0.516414931,0.785750275,1.249942567,5,Fixed,"Correct, no change",-0.855878247,-2.144,-0.922830968,1.19,3.334,3.75,1.25,0.0842,1008,545,1.008,0.545,7,1256,3198,1250,3750
284,2528,7,75,2,4.284,1.779,0.5347,0.4802,0,1,0.959,0.574,50,44,6,1,5.25,1.75,1.405,4.734,6,right,left,-0.809491854,-0.939285992,0.785750275,1.249942567,7,Fixed,Incorrect to correct,-0.855878247,-3.329,-1.499968246,4.734,1.405,1.75,5.25,-0.0545,1162,667,1.162,0.667,17,1773,4734,1750,5250
285,2529,7,77,2,3.508,1.485,0.9818,0.8467,1,1,1.306,0.634,50,57,7,1,3.5,3.5,3.063,3.206,-7,right,right,1.543665488,0.888334807,1.290037765,-1.339579883,7,Fixed,"Correct, no change",-0.855878247,-0.143,0.051727424,3.206,3.063,3.5,3.5,-0.1351,1046,515,1.046,0.515,14,3308,3273,3500,3500
286,2530,7,78,2,3.031,0.816,0.7223,0.72,0,1,1.113,0.544,50,56,6,1,5.25,1.75,1.662,2.462,-6,left,right,0.177876335,0.25652156,0.785750275,-1.140385848,7,Fixed,Incorrect to correct,-0.855878247,-0.8,-0.268255016,1.662,2.462,5.25,1.75,-0.0023,503,970,0.503,0.97,8,1662,2528,1750,5250
287,2531,7,79,2,2.1,1.417,0.985,0.96,1,1,0.974,1.333,50,57,7,1,2.5,2.5,2.289,2.192,-7,right,right,1.56050759,1.453326449,1.290037765,-1.339579883,5,Fixed,"Correct, no change",-0.855878247,0.097,0.168615987,2.192,2.289,2.5,2.5,-0.025,924,573,0.924,0.573,10,2541,2258,2500,2500
288,2532,7,80,2,2.19,1.932,0.9065,0.7112,1,1,1.823,0.908,57,50,7,1,2.5,2.5,2.029,2.734,7,left,left,1.147349792,0.212638714,1.290037765,1.449136602,5,Fixed,"Correct, no change",-0.855878247,-0.705,-0.221986627,2.029,2.734,2.5,2.5,-0.1953,741,856,0.741,0.856,13,2535,2734,2500,2500
289,2533,7,81,2,1.551,1.746,0.93,0.9252,1,1,0.793,0.727,50,56,6,2,3.75,1.25,1.024,3.649,-6,right,right,1.271033973,1.27978974,0.785750275,-1.140385848,5,Fixed,"Correct, no change",-0.572161701,-2.625,-1.157095129,3.649,1.024,1.25,3.75,-0.0048,904,616,0.904,0.616,12,1024,4051,1250,3750
290,2534,7,82,2,1.707,1.746,0.7293,0.7432,1,1,2.706,0.977,50,56,6,1,5.25,1.75,1.409,5.234,-6,right,right,0.214718432,0.372212699,0.785750275,-1.140385848,7,Fixed,"Correct, no change",-0.855878247,-3.825,-1.741537943,5.234,1.409,1.75,5.25,0.0139,898,664,0.898,0.664,18,1678,4967,1750,5250
291,2535,7,83,2,1.742,1.605,0.6368,0.5393,1,1,0.831,0.354,50,45,5,1,2.5,2.5,2.057,2.304,5,left,left,-0.272123559,-0.644572788,0.281462785,1.050748533,5,Fixed,"Correct, no change",-0.855878247,-0.247,0.001075714,2.057,2.304,2.5,2.5,-0.0975,1024,575,1.024,0.575,14,2395,2304,2500,2500
292,2536,7,84,3,1.944,2.225,0.5163,0.7367,1,1,1.427,3.217,50,45,5,1,1.75,5.25,5.229,1.409,5,left,left,-0.906333937,0.339799233,0.281462785,1.050748533,7,Fixed,"Correct, no change",-0.855878247,3.82,1.981849817,5.229,1.409,1.75,5.25,0.2204,1144,401,1.144,0.401,19,5295,2160,5250,1750
293,2537,7,85,3,3.466,1.507,0.5268,0.4533,1,1,0.546,2.242,50,54,4,1,2.5,2.5,2.098,2.1,-4,right,right,-0.851070792,-1.073427873,-0.222824705,-0.741997779,5,Fixed,"Correct, no change",-0.855878247,-0.002,0.120399455,2.1,2.098,2.5,2.5,-0.0735,672,910,0.672,0.91,8,2342,2335,2500,2500
294,2538,7,87,3,1.486,2.336,0.7508,0.7988,1,1,0.493,1.082,50,53,3,2,1.25,3.75,3.448,1.07,-3,right,right,0.3278763,0.649472498,-0.727112195,-0.542803744,5,Fixed,"Correct, no change",-0.572161701,2.378,1.279544369,1.07,3.448,3.75,1.25,0.048,870,713,0.87,0.713,13,3809,1137,3750,1250
295,2539,7,89,3,3.466,1.489,0.931,0.664,1,1,2.223,1.112,52,50,2,1,3.5,3.5,3.092,3.609,2,left,left,1.27629713,-0.022732915,-1.231399685,0.453166429,7,Fixed,"Correct, no change",-0.855878247,-0.517,-0.13042392,3.092,3.609,3.5,3.5,-0.267,618,968,0.618,0.968,18,3452,3609,3500,3500
296,2540,7,91,3,2.222,1.936,0.6695,0.5982,1,1,0.821,1.128,50,47,3,1,3.5,3.5,3.626,3.021,3,left,left,-0.100018336,-0.350856922,-0.727112195,0.652360463,7,Fixed,"Correct, no change",-0.855878247,0.605,0.416030111,3.626,3.021,3.5,3.5,-0.0713,711,822,0.711,0.822,21,3715,3304,3500,3500
297,2541,7,92,3,2.099,2.295,0.74,0.7995,0,0,0.681,2.786,50,47,3,1,2.5,2.5,2.447,2.082,3,right,right,0.271034208,0.652963179,-0.727112195,0.652360463,5,Fixed,"Incorrect, no change",-0.855878247,0.365,0.299141549,2.082,2.447,2.5,2.5,0.0595,908,643,0.908,0.643,13,2447,2679,2500,2500
298,2542,7,93,3,1.827,2.021,0.8747,0.8423,1,1,0.616,0.533,50,54,4,2,1.75,5.25,4.932,1.491,-4,right,right,0.97998141,0.866393384,-0.222824705,-0.741997779,7,Fixed,"Correct, no change",-0.572161701,3.441,1.797263295,1.491,4.932,5.25,1.75,-0.0324,962,592,0.962,0.592,19,4932,1860,5250,1750
299,2543,7,94,3,2.583,1.878,0.7425,0.6148,1,1,0.59,0.334,50,54,4,1,3.75,1.25,1.242,1.517,-4,right,right,0.2841921,-0.268077917,-0.222824705,-0.741997779,5,Fixed,"Correct, no change",-0.855878247,-0.275,-0.012561285,1.517,1.242,1.25,3.75,-0.1277,842,725,0.842,0.725,6,1242,1897,1250,3750
300,2544,7,95,3,1.501,3.235,0.7753,0.7965,0,0,0.711,0.438,50,47,3,1,2.5,2.5,2.366,2.129,3,right,right,0.456823638,0.638003118,-0.727112195,0.652360463,5,Fixed,"Incorrect, no change",-0.855878247,0.237,0.236800982,2.129,2.366,2.5,2.5,0.0212,912,669,0.912,0.669,10,2366,2533,2500,2500
301,2545,7,96,3,1.486,3.284,0.8253,0.6967,1,1,0.729,0.59,50,54,4,1,2.5,2.5,2.163,2.102,-4,right,right,0.719981471,0.140331752,-0.222824705,-0.741997779,5,Fixed,"Correct, no change",-0.855878247,0.061,0.151082702,2.102,2.163,2.5,2.5,-0.1286,874,705,0.874,0.705,8,2618,2169,2500,2500
302,2546,7,99,3,1.772,1.656,0.601,0.7018,1,1,0.945,0.847,50,56,6,1,3.75,1.25,0.977,3.774,-6,right,right,-0.460544568,0.165763855,0.785750275,-1.140385848,5,Fixed,"Correct, no change",-0.855878247,-2.797,-1.240865266,3.774,0.977,1.25,3.75,0.1008,697,814,0.697,0.814,14,1232,3840,1250,3750
303,2547,7,100,3,1.893,1.346,0.6613,0.4208,1,1,0.827,0.683,50,56,6,1,3.5,3.5,3.264,2.856,-6,right,right,-0.143176221,-1.235495202,0.785750275,-1.140385848,7,Fixed,"Correct, no change",-0.855878247,0.408,0.320084083,2.856,3.264,3.5,3.5,-0.2405,810,1052,0.81,1.052,19,3264,2922,3500,3500
304,2548,7,102,3,1.841,0.829,0.7187,0.6193,1,1,2.417,0.356,45,50,5,1,1.75,5.25,1.662,1.64,-5,right,right,0.158928971,-0.245637825,0.281462785,-0.941191814,7,Fixed,"Correct, no change",-0.855878247,0.022,0.132088311,1.64,1.662,5.25,1.75,-0.0994,932,657,0.932,0.657,9,1662,1707,5250,1750
305,2549,7,103,3,1.759,1.474,0.698,0.6982,1,1,1.203,1.126,54,50,4,1,1.75,5.25,5.15,1.246,4,left,left,0.049981628,0.147811782,-0.222824705,0.851554498,7,Fixed,"Correct, no change",-0.855878247,3.904,2.022760814,5.15,1.246,1.75,5.25,0.0002,623,882,0.623,0.882,19,5217,1582,5250,1750
306,2550,7,105,4,2.238,2.579,0.5845,0.2665,1,1,1.301,0.532,50,53,3,1,5.25,1.75,1.66,4.374,-3,right,right,-0.547386652,-2.004941012,-0.727112195,-0.542803744,7,Fixed,"Correct, no change",-0.855878247,-2.714,-1.200441304,4.374,1.66,1.75,5.25,-0.318,670,928,0.67,0.928,10,1660,4709,1750,5250
307,2551,7,106,4,1.767,1.523,0.9485,0.7948,1,1,1.346,0.875,48,50,2,1,2.5,2.5,2.141,2.37,-2,right,right,1.368402372,0.62952575,-1.231399685,-0.34360971,5,Fixed,"Correct, no change",-0.855878247,-0.229,0.009842356,2.37,2.141,2.5,2.5,-0.1537,659,872,0.659,0.872,8,2378,2437,2500,2500
308,2552,7,108,4,1.629,1.29,0.9523,0.7435,1,1,1.27,0.457,50,51,1,1,3.5,3.5,2.586,3.186,-1,right,right,1.388402367,0.373708705,-1.735687175,-0.144415675,7,Fixed,"Correct, no change",-0.855878247,-0.6,-0.170847881,3.186,2.586,3.5,3.5,-0.2088,678,888,0.678,0.888,9,2586,3252,3500,3500
309,2553,7,109,4,2.109,1.363,0.4943,0.7642,0,0,0.988,1.109,50,50,0,1,1.75,5.25,4.82,1.41,0,left,left,-1.022123383,0.476933127,-2.239974665,0.05477836,7,Fixed,"Incorrect, no change",-0.855878247,3.41,1.782165189,4.82,1.41,1.75,5.25,0.2699,990,616,0.99,0.616,18,4887,1648,5250,1750
310,2554,7,111,4,2.378,2.729,0.6612,0.3213,0,0,0.995,0.849,50,49,1,1,1.25,3.75,3.322,1.206,1,right,right,-0.143702537,-1.731670562,-1.735687175,0.253972394,5,Fixed,"Incorrect, no change",-0.855878247,2.116,1.151941021,1.206,3.322,3.75,1.25,-0.3399,637,924,0.637,0.924,8,3570,1272,3750,1250
311,2555,7,112,4,2.437,2.181,0.4058,0.4385,0,0,0.588,0.303,52,50,2,1,5.25,1.75,1.656,3.606,2,right,right,-1.487912747,-1.147230842,-1.231399685,0.453166429,7,Fixed,"Incorrect, no change",-0.855878247,-1.95,-0.828346046,3.606,1.656,1.75,5.25,0.0327,918,669,0.918,0.669,12,1656,3503,1750,5250
312,2556,7,113,4,1.49,1.969,0.7262,0.4967,1,1,0.683,0.567,53,50,3,1,3.5,3.5,2.966,3.098,3,left,left,0.198402646,-0.857005656,-0.727112195,0.652360463,7,Fixed,"Correct, no change",-0.855878247,-0.132,0.057084817,2.966,3.098,3.5,3.5,-0.2295,472,664,0.472,0.664,21,3301,3098,3500,3500
313,2557,7,115,4,1.648,1.462,0.6243,0.53,1,1,2.514,0.662,54,50,4,1,3.75,1.25,0.931,3.612,4,left,left,-0.337913017,-0.690948978,-0.222824705,0.851554498,5,Fixed,"Correct, no change",-0.855878247,-2.681,-1.184369127,0.931,3.612,3.75,1.25,-0.0943,531,988,0.531,0.988,12,1317,3612,1250,3750
314,2558,7,118,4,2.269,1.397,0.508,0.3998,1,1,0.562,0.81,50,45,5,1,2.5,2.5,2.466,1.686,5,left,left,-0.950018137,-1.34021563,0.281462785,1.050748533,5,Fixed,"Correct, no change",-0.855878247,0.78,0.501261355,2.466,1.686,2.5,2.5,-0.1082,850,731,0.85,0.731,8,2712,1686,2500,2500
315,2559,7,119,4,2.039,2.929,0.3708,0.365,1,1,0.682,2.798,46,50,4,1,2.5,2.5,1.877,2.21,-4,right,right,-1.672123231,-1.513752339,-0.222824705,-0.741997779,5,Fixed,"Correct, no change",-0.855878247,-0.333,-0.040809355,2.21,1.877,2.5,2.5,-0.0058,602,966,0.602,0.966,8,1948,2276,2500,2500
316,2560,7,121,4,1.536,3.019,0.5818,0.5805,1,1,1.243,0.558,50,45,5,1,5.25,1.75,1.6,4.706,5,left,left,-0.561597175,-0.439121282,0.281462785,1.050748533,7,Fixed,"Correct, no change",-0.855878247,-3.106,-1.39135929,1.6,4.706,5.25,1.75,-0.0013,647,930,0.647,0.93,16,1667,4968,1750,5250
317,2561,7,123,4,2.182,2.647,0.689,0.7645,0,0,0.407,0.402,54,50,4,1,3.75,1.25,0.923,3.49,4,right,right,0.002613218,0.478429133,-0.222824705,0.851554498,5,Fixed,"Incorrect, no change",-0.855878247,-2.567,-1.12884706,3.49,0.923,1.25,3.75,0.0755,856,646,0.856,0.646,12,1188,3556,1250,3750
318,2562,7,124,4,1.816,3.405,0.4942,0.6203,1,1,0.556,1.312,45,50,5,1,1.75,5.25,5.01,1.356,-5,right,right,-1.022649699,-0.240651138,0.281462785,-0.941191814,7,Fixed,"Correct, no change",-0.855878247,3.654,1.901001894,1.356,5.01,5.25,1.75,0.1261,702,832,0.702,0.832,21,5010,1596,5250,1750
319,2563,7,125,4,1.54,1.635,0.836,0.8945,1,1,0.779,0.539,50,55,5,2,3.75,1.25,1.215,3.476,-5,right,right,0.776297247,1.126698448,0.281462785,-0.941191814,5,Fixed,"Correct, no change",-0.572161701,-2.261,-0.979814142,3.476,1.215,1.25,3.75,0.0585,912,630,0.912,0.63,15,1709,3543,1250,3750
320,2564,7,126,5,2.916,1.256,0.0832,0.2157,0,0,1.303,0.935,50,54,4,1,3.5,3.5,2.98,3.188,-4,left,left,-3.185807086,-2.258264714,-0.222824705,-0.741997779,7,Fixed,"Incorrect, no change",-0.855878247,-0.208,0.020070105,2.98,3.188,3.5,3.5,0.1325,664,882,0.664,0.882,17,3393,3188,3500,3500
321,2565,7,127,5,1.244,2.658,0.448,0.8012,1,1,0.871,0.705,50,45,5,2,3.5,3.5,5.316,1.004,5,left,left,-1.265807536,0.661440547,0.281462785,1.050748533,7,Fixed,"Correct, no change",-0.572161701,4.312,2.22147137,5.316,1.004,3.5,3.5,0.3532,743,772,0.743,0.772,10,6191,1004,3500,3500
322,2566,7,128,5,2.564,1.315,0.6488,0.8742,1,1,0.881,1.149,50,45,5,3,5.25,1.75,1.986,3.272,5,left,left,-0.208965679,1.025468701,0.281462785,1.050748533,7,Fixed,"Correct, no change",-0.288445155,-1.286,-0.504954356,1.986,3.272,5.25,1.75,0.2254,944,505,0.944,0.505,13,2053,3468,1750,5250
323,2567,7,129,0,1.672,1.925,0.3673,0.4958,1,1,0.83,0.487,50,55,5,2,5.25,1.75,1.391,4.862,-5,right,right,-1.690544279,-0.861493674,0.281462785,-0.941191814,7,Fixed,"Correct, no change",-0.572161701,-3.471,-1.569127313,4.862,1.391,1.75,5.25,0.1285,627,952,0.627,0.952,20,1391,4928,1750,5250
324,2568,7,131,0,1.63,1.496,0.4913,0.605,1,1,1.193,0.881,55,50,5,1,3.75,1.25,0.895,3.572,5,left,left,-1.037912853,-0.31694745,0.281462785,1.050748533,5,Fixed,"Correct, no change",-0.855878247,-2.677,-1.182420984,0.895,3.572,3.75,1.25,0.1137,870,679,0.87,0.679,10,1187,3572,1250,3750
325,2569,7,132,0,3.591,1.695,0.5112,0.4973,1,1,1.008,0.346,50,54,4,1,1.75,5.25,3.765,1.554,-4,right,right,-0.933176036,-0.854013644,-0.222824705,-0.741997779,7,Fixed,"Correct, no change",-0.855878247,2.211,1.19820941,1.554,3.765,5.25,1.75,-0.0139,760,728,0.76,0.728,8,4060,1621,5250,1750
326,2570,7,134,0,1.453,1.04,0.7752,0.6445,1,1,1.409,3.731,47,50,3,2,3.5,3.5,3.162,2.696,-3,right,right,0.456297323,-0.119973312,-0.727112195,-0.542803744,7,Fixed,"Correct, no change",-0.572161701,0.466,0.348332152,2.696,3.162,3.5,3.5,-0.1307,666,860,0.666,0.86,18,3162,2762,3500,3500
327,2571,7,136,0,1.421,2.18,0.6812,0.6133,1,1,1.07,0.805,50,48,2,1,3.75,1.25,1.01,3.458,2,left,left,-0.038439403,-0.275557947,-1.231399685,0.453166429,5,Fixed,"Correct, no change",-0.855878247,-2.448,-1.070889814,1.01,3.458,3.75,1.25,-0.0679,662,864,0.662,0.864,8,1315,3458,1250,3750
328,2572,7,138,0,1.976,1.648,0.6813,0.5875,0,0,1.796,3.453,53,50,3,2,3.5,3.5,3.236,1.773,3,right,right,-0.037913088,-0.404214473,-0.727112195,0.652360463,7,Fixed,"Incorrect, no change",-0.572161701,1.463,0.833906723,1.773,3.236,3.5,3.5,-0.0938,894,694,0.894,0.694,9,3236,2093,3500,3500
329,2573,7,139,0,1.946,1.567,0.8757,0.9838,1,1,1.476,0.793,46,50,4,2,5.25,1.75,1.262,2.14,-4,right,right,0.985244567,1.5720096,-0.222824705,-0.741997779,7,Fixed,"Correct, no change",-0.572161701,-0.878,-0.306243799,2.14,1.262,1.75,5.25,0.1081,589,950,0.589,0.95,8,1262,2541,1750,5250
330,2574,7,141,0,2.002,1.813,0.5143,0.3992,0,0,0.718,1.263,47,50,3,1,1.25,3.75,3.386,1.203,-3,left,left,-0.91686025,-1.343207642,-0.727112195,-0.542803744,5,Fixed,"Incorrect, no change",-0.855878247,2.183,1.184572411,3.386,1.203,1.25,3.75,-0.1151,412,1224,0.412,1.224,10,3453,1433,3750,1250
331,2575,7,142,0,1.2,1.628,0.9258,0.9118,1,1,3.736,0.559,54,50,4,1,2.5,2.5,2.35,2.131,4,left,left,1.248928715,1.212968133,-0.222824705,0.851554498,5,Fixed,"Correct, no change",-0.855878247,0.219,0.22803434,2.35,2.131,2.5,2.5,-0.014,641,908,0.641,0.908,12,2416,2566,2500,2500
332,2576,7,143,0,3.195,1.598,0.5423,0.4305,1,1,1.758,0.527,46,50,4,1,2.5,2.5,1.32,2.361,-4,right,right,-0.769491863,-1.187124338,-0.222824705,-0.741997779,5,Fixed,"Correct, no change",-0.855878247,-1.041,-0.385630615,2.361,1.32,2.5,2.5,-0.1118,976,657,0.976,0.657,11,1320,2428,2500,2500
333,2577,7,144,0,1.754,1.465,0.6868,0.5322,1,1,0.866,2.574,50,53,3,0,1.75,5.25,4.056,1.321,-3,right,right,-0.008965726,-0.679978266,-0.727112195,-0.542803744,7,Fixed,"Correct, no change",-1.139594792,2.735,1.453416106,1.321,4.056,5.25,1.75,-0.1546,595,904,0.595,0.904,13,4056,1665,5250,1750
334,2578,7,145,0,3.366,1.915,0.4822,0.591,1,1,1.282,0.361,47,50,3,1,5.25,1.75,1.674,4.196,-3,right,right,-1.085807579,-0.386761068,-0.727112195,-0.542803744,7,Fixed,"Correct, no change",-0.855878247,-2.522,-1.106930454,4.196,1.674,1.75,5.25,0.1088,631,934,0.631,0.934,10,1674,4524,1750,5250
335,2579,7,146,0,1.724,3.733,0.6953,0.3623,1,1,0.359,3.127,48,50,2,3,1.25,3.75,2.146,1.481,-2,right,right,0.035771105,-1.527216394,-1.231399685,-0.34360971,5,Fixed,"Correct, no change",-0.288445155,0.665,0.445252252,1.481,2.146,3.75,1.25,-0.333,605,926,0.605,0.926,11,2146,3256,3750,1250
336,2580,7,148,0,1.656,1.507,0.8418,0.6692,1,1,0.934,0.682,47,50,3,1,3.75,1.25,1.074,2.34,-3,right,right,0.806823556,0.003197858,-0.727112195,-0.542803744,5,Fixed,"Correct, no change",-0.855878247,-1.266,-0.495213642,2.34,1.074,1.25,3.75,-0.1726,952,665,0.952,0.665,6,1074,2807,1250,3750
337,2581,7,149,0,1.56,2.018,0.4812,0.5007,0,0,0.812,0.79,47,50,3,1,1.75,5.25,4.874,1.423,-3,left,left,-1.091070735,-0.837058908,-0.727112195,-0.542803744,7,Fixed,"Incorrect, no change",-0.855878247,3.451,1.802133651,4.874,1.423,1.75,5.25,0.0195,741,832,0.741,0.832,16,4941,1676,5250,1750
338,2582,7,151,1,1.855,1.549,0.929,0.7837,1,1,0.839,0.566,50,54,4,1,3.5,3.5,2.991,3.38,-4,right,right,1.265770817,0.574173524,-0.222824705,-0.741997779,7,Fixed,"Correct, no change",-0.855878247,-0.389,-0.068083353,3.38,2.991,3.5,3.5,-0.1453,936,639,0.936,0.639,10,3218,3447,3500,3500
339,2583,7,153,1,1.436,1.578,0.499,0.4577,1,1,0.607,0.278,47,50,3,1,3.5,3.5,3.168,2.916,-3,right,right,-0.997386547,-1.05148645,-0.727112195,-0.542803744,7,Fixed,"Correct, no change",-0.855878247,0.252,0.244106517,2.916,3.168,3.5,3.5,-0.0413,706,884,0.706,0.884,16,3168,3385,3500,3500
340,2584,7,154,1,4.345,2.52,0.3533,0.3657,0,1,0.634,0.873,52,50,2,1,1.25,3.75,3.736,0.932,2,right,left,-1.764228472,-1.510261658,-1.231399685,0.453166429,5,Fixed,Incorrect to correct,-0.855878247,2.804,1.487021568,0.932,3.736,3.75,1.25,0.0124,906,567,0.906,0.567,12,3803,1242,3750,1250
341,2585,7,156,1,2.35,1.725,0.8545,0.8453,0,1,0.352,0.309,50,46,4,1,3.75,1.25,0.996,3.818,4,right,left,0.873665646,0.881353445,-0.222824705,0.851554498,5,Fixed,Incorrect to correct,-0.855878247,-2.822,-1.253041158,3.818,0.996,1.25,3.75,-0.0092,1048,540,1.048,0.54,11,1300,3870,1250,3750
342,2586,7,158,1,1.626,1.468,0.9052,0.955,1,1,0.784,1.498,50,55,5,1,5.25,1.75,1.424,4.85,-5,right,right,1.140507688,1.428393013,0.281462785,-0.941191814,7,Fixed,"Correct, no change",-0.855878247,-3.426,-1.547210707,4.85,1.424,1.75,5.25,0.0498,906,629,0.906,0.629,16,1688,4678,1750,5250
343,2587,7,159,1,1.873,1.425,0.2352,0.244,0,0,0.727,0.753,50,46,4,1,3.5,3.5,3.222,2.974,4,right,right,-2.385807274,-2.11714147,-0.222824705,0.851554498,7,Fixed,"Incorrect, no change",-0.855878247,0.248,0.242158374,2.974,3.222,3.5,3.5,0.0088,872,659,0.872,0.659,16,3222,3040,3500,3500
344,2588,7,162,1,1.392,1.591,0.9707,0.991,1,1,1.203,0.289,54,50,4,1,5.25,1.75,1.64,1.434,4,left,left,1.485244449,1.607913747,-0.222824705,0.851554498,7,Fixed,"Correct, no change",-0.855878247,0.206,0.221702876,1.64,1.434,5.25,1.75,0.0203,721,816,0.721,0.816,6,1707,1706,1750,5250
345,2589,7,163,1,3.528,1.892,0.7123,0.7432,0,1,0.799,0.741,50,46,4,2,2.5,2.5,2.442,2.303,4,right,left,0.125244769,0.372212699,-0.222824705,0.851554498,5,Fixed,Incorrect to correct,-0.572161701,0.139,0.189071485,2.303,2.442,2.5,2.5,0.0309,980,594,0.98,0.594,11,2508,2619,2500,2500
346,2590,7,165,1,1.629,0.976,0.7947,0.7308,0,1,0.23,0.294,55,50,5,1,1.25,3.75,2.214,1.162,5,right,left,0.558928877,0.31037778,0.281462785,1.050748533,5,Fixed,Incorrect to correct,-0.855878247,1.052,0.63373506,1.162,2.214,3.75,1.25,-0.0639,966,654,0.966,0.654,4,2281,1162,3750,1250
347,2591,7,166,1,1.45,1.338,0.979,0.9773,1,1,0.552,0.511,44,50,6,1,3.5,3.5,1.576,2.996,-6,right,right,1.52892865,1.539596134,0.785750275,-1.140385848,7,Fixed,"Correct, no change",-0.855878247,-1.42,-0.570217137,2.996,1.576,3.5,3.5,-0.0017,856,692,0.856,0.692,11,1576,3062,3500,3500
348,2592,7,167,1,1.722,1.908,0.977,0.9902,1,1,0.556,0.563,50,56,6,1,3.75,1.25,1.086,1.094,-6,right,right,1.518402336,1.603924397,0.785750275,-1.140385848,5,Fixed,"Correct, no change",-0.855878247,-0.008,0.117477241,1.094,1.086,1.25,3.75,0.0132,916,672,0.916,0.672,4,1086,1313,1250,3750
349,2593,7,168,1,1.806,3.556,0.61,0.9782,1,1,0.73,0.495,50,45,5,2,1.25,3.75,2.44,1.156,5,left,left,-0.413176158,1.544084153,0.281462785,1.050748533,5,Fixed,"Correct, no change",-0.572161701,1.284,0.746727337,2.44,1.156,1.25,3.75,0.3682,705,910,0.705,0.91,5,2747,1156,3750,1250
