,BLOCK,CHOICE_RT_1,CHOICE_RT_2,CONF_1,CONF_2,CONF_RT_1,CONF_RT_2,CORRECT,CORRECT_2,Chosen_Nr_1,Chosen_Nr_2,Correct_Count,DOTS_LEFT,DOTS_RIGHT,Dot_Diff,Error_Count,GSF_First_Presentation,GSF_Second_Presentation,LEFT_MOST_DOTS,LEFT_PRESENTATION_TIME,Left_IA_First_Dwell_Time,Left_IA_Second_Dwell_Time,PICKED_LEFT_1,PICKED_LEFT_2,Participant,RIGHT_PRESENTATION_TIME,Right_IA_First_Dwell_Time,Right_IA_Second_Dwell_Time,TOTAL_POINTS,TRIAL_POINTS,Unchosen_Nr_1,Unchosen_Nr_2,Which_First,ZConf1,ZConf1ALL,ZConf2,ZConf2ALL,ZDot_Diff,ZRT,sampling_time,session,type,Internal_Saccades_First,Internal_Saccades_Second,RightFirst,Left_IA_Second_Dwell_Time_REVISED,Right_IA_Second_Dwell_Time_REVISED,Left_Gazetime_New,Right_Gazetime_New,LeftLonger,LEFT_PRESENTATION_TIME_REV,RIGHT_PRESENTATION_TIME_REV
0,0,1656,913,47.95,40.28,827,1078,1,-1,50,46,1,50,46,4,0,1,3,True,5250,727,1618,True,False,1,1750,796,3520,146,102,46,50,Left,-0.042585374,0.019069045,-0.29096419,-0.412447436,0.011777391000000002,-0.120969384,,Fixed,Correct to incorrect,4,12,0,1618.0,3520.0,1618,3587,99,1750.0,5250.0
1,0,1186,1435,57.38,61.25,1316,1240,1,1,50,50,2,50,46,4,0,1,1,True,1750,882,4072,True,True,1,5250,500,2236,304,158,46,46,Left,0.49614381,0.674126653,0.7079317159999999,0.800980915,0.011777391000000002,-0.596413509,,Fixed,"Correct, no change",3,19,0,4072.0,2236.0,0,2464,99,5250.0,1750.0
2,0,1941,3974,38.38,57.08,1517,1126,1,-1,50,47,1,47,50,3,0,1,1,False,1500,942,1093,False,True,1,1500,673,1366,394,90,47,50,Right,-0.589312658,-0.645713703,0.509295763,0.559684004,-0.54764869,0.167331841,,Fixed,Correct to incorrect,5,6,1,1366.0,1093.0,1957,1366,99,1500.0,1500.0
3,0,2165,1187,53.45,40.6,1329,647,1,1,53,53,2,53,50,3,0,1,2,True,1250,884,1595,True,True,1,3750,732,1412,540,146,50,50,Right,0.271625709,0.401128095,-0.275721143,-0.393930647,-0.54764869,0.39392648799999996,,Fixed,"Correct, no change",4,7,1,1412.0,1595.0,0,1412,99,3750.0,1250.0
4,0,1050,1186,72.92,86.62,1262,1507,1,1,52,52,1,52,50,2,0,1,2,True,3750,446,1392,True,True,1,1250,816,2220,719,179,50,50,Right,1.383932943,1.753617134,1.916419514,2.269015118,-1.107074771,-0.7339888309999999,,Fixed,"Correct, no change",3,8,1,2220.0,1392.0,1637,2220,99,1250.0,3750.0
5,0,1401,893,59.92,68.85,1183,2216,1,1,52,52,2,52,50,2,0,1,1,True,5250,630,1518,True,True,1,1750,792,1576,882,163,50,50,Left,0.641252201,0.850568469,1.069954076,1.240754661,-1.107074771,-0.378923112,,Fixed,"Correct, no change",4,6,0,1518.0,1576.0,1584,1576,99,1750.0,5250.0
6,0,1233,1721,45.13,53.22,700,830,1,1,51,51,1,50,51,1,0,1,4,False,750,908,1638,False,False,1,2250,741,1478,1030,148,50,50,Right,-0.20368996600000003,-0.17682305,0.325426512,0.33632523200000003,-1.666500852,-0.5488690970000001,,Fixed,"Correct, no change",4,4,1,1478.0,1638.0,1638,1683,99,2250.0,750.0
7,0,2534,2259,56.33,45.0,3165,2524,1,-1,51,50,2,51,50,1,0,1,3,True,750,942,1524,True,False,1,2250,542,1657,1135,105,50,51,Left,0.43615805799999996,0.601188107,-0.066129251,-0.139324793,-1.666500852,0.7672007059999999,,Fixed,Correct to incorrect,2,7,0,1524.0,1657.0,1524,2038,99,2250.0,750.0
8,0,1683,1658,66.08,75.75,14223,1447,-1,-1,50,50,0,50,50,0,1,1,3,False,3500,578,3147,True,True,1,3500,848,2564,1163,28,50,50,Right,0.993168614,1.2784746059999998,1.3986322709999999,1.6400229309999999,-2.225926933,-0.093656636,,Fixed,"Incorrect, no change",3,11,1,2564.0,3147.0,3683,2564,99,3500.0,3500.0
9,0,2509,1326,62.48,49.73,1011,697,1,-1,50,49,1,50,49,1,0,1,1,True,1500,572,1374,True,False,1,1500,842,1116,1269,106,49,50,Left,0.7875031779999999,1.028399591,0.159182034,0.134376499,-1.666500852,0.741911125,,Fixed,Correct to incorrect,3,5,0,1374.0,1116.0,1374,1182,99,1500.0,1500.0
10,0,2031,1783,54.72,59.92,3728,9421,1,1,51,51,2,51,50,1,0,1,1,True,1250,594,1702,True,True,1,3750,810,1070,1425,156,50,50,Right,0.344179905,0.48934900299999995,0.644577803,0.724020509,-1.666500852,0.258374333,,Fixed,"Correct, no change",4,5,1,1070.0,1702.0,1768,1070,99,3750.0,1250.0
11,0,1878,1831,63.85,53.67,1089,626,-1,-1,50,50,0,50,50,0,1,1,2,False,1500,886,1776,True,False,1,1500,757,1466,1466,41,50,50,Left,0.865770303,1.123567027,0.346862047,0.362364467,-2.225926933,0.10360209699999999,,Fixed,"Incorrect, no change",3,7,0,1776.0,1466.0,1776,1533,99,1500.0,1500.0
12,0,1131,4624,46.55,50.9,1000,3165,1,1,50,50,1,50,49,1,0,1,1,True,750,930,1907,True,True,1,2250,566,576,1614,148,49,49,Right,-0.12256637699999999,-0.07818235,0.21491442300000002,0.20207851,-1.666500852,-0.6520505879999999,,Fixed,"Correct, no change",4,5,1,576.0,1907.0,2283,576,99,2250.0,750.0
13,0,1296,2063,64.25,64.62,2806,1545,1,1,51,51,2,51,50,1,0,1,5,True,2500,1222,2450,True,True,1,2500,636,1444,1778,164,50,50,Right,0.888622018,1.15135314,0.868460052,0.995985852,-1.666500852,-0.485139352,,Fixed,"Correct, no change",4,7,1,1444.0,2450.0,2893,1444,99,2500.0,2500.0
14,0,2392,1839,56.92,62.68,745,1642,-1,-1,50,50,0,50,50,0,1,1,1,False,1500,848,1662,True,True,1,1500,747,1308,1817,39,50,50,Right,0.469864338,0.642172623,0.7760490809999999,0.883727817,-2.225926933,0.623555885,,Fixed,"Incorrect, no change",4,5,1,1308.0,1662.0,2006,1308,99,1500.0,1500.0
15,0,2097,1335,61.07,40.6,749,684,-1,1,50,51,0,51,50,1,1,1,3,True,1250,906,1600,False,True,1,3750,760,1444,1906,89,51,50,Right,0.706950882,0.9304535429999999,-0.275721143,-0.393930647,-1.666500852,0.325138828,,Fixed,Incorrect to correct,3,5,1,1444.0,1600.0,1990,1444,99,3750.0,1250.0
16,0,3085,2220,29.97,29.6,1228,928,1,-1,52,50,1,50,52,2,0,1,7,False,1750,744,3305,False,True,1,5250,824,1808,2005,99,50,52,Right,-1.069769969,-1.229916724,-0.799700874,-1.03044528,-1.107074771,1.324583075,,Fixed,Correct to incorrect,3,11,1,1808.0,3305.0,0,1808,99,5250.0,1750.0
17,0,1388,1967,63.88,31.18,1165,1688,-1,-1,50,50,1,52,50,2,1,1,5,True,1750,898,3440,False,False,1,5250,550,2012,2057,52,52,52,Right,0.8674841809999999,1.125650986,-0.724438331,-0.939018632,-1.107074771,-0.392073694,,Fixed,"Incorrect, no change",3,9,1,2012.0,3440.0,3440,2446,99,5250.0,1750.0
18,0,1185,1711,66.98,78.68,6550,4822,1,1,53,53,1,53,50,3,0,2,6,True,3500,462,1786,True,True,1,3500,930,2584,2229,172,50,50,Right,1.0445849729999999,1.340993359,1.5382014169999998,1.809567283,-0.54764869,-0.597425093,,Fixed,"Correct, no change",3,7,1,2584.0,1786.0,0,2584,99,3500.0,3500.0
19,0,1869,1483,63.67,62.53,4911,1080,1,1,53,53,2,53,50,3,0,1,1,True,2500,652,2342,True,True,1,2500,966,2024,2391,162,50,50,Left,0.8554870309999999,1.1110632759999999,0.768903903,0.875048072,-0.54764869,0.09449784800000001,,Fixed,"Correct, no change",3,11,0,2342.0,2024.0,2409,2278,99,2500.0,2500.0
20,1,2475,1106,59.07,62.68,2068,2581,-1,-1,50,50,0,50,52,2,1,1,5,False,2500,585,1568,True,True,1,2500,798,1984,2429,38,52,52,Right,0.5926923070000001,0.79152298,0.7760490809999999,0.883727817,-1.107074771,0.707517295,,Fixed,"Incorrect, no change",4,6,1,1984.0,1568.0,1635,1984,99,2500.0,2500.0
21,1,1334,1176,61.47,68.02,1424,970,1,1,50,50,1,50,47,3,0,1,3,True,2250,580,2130,True,True,1,750,830,918,2593,164,47,47,Right,0.729802598,0.9582396559999999,1.030417423,1.192726739,-0.54764869,-0.446699189,,Fixed,"Correct, no change",4,5,1,918.0,2130.0,2431,918,99,750.0,2250.0
22,1,1425,724,59.77,76.15,506,1328,1,1,53,53,2,53,50,3,0,1,2,True,1500,765,1294,True,True,1,1500,852,752,2760,167,50,50,Left,0.632682808,0.8401486770000001,1.417686079,1.6631689180000002,-0.54764869,-0.354645114,,Fixed,"Correct, no change",3,3,0,1294.0,752.0,1361,752,99,1500.0,1500.0
23,1,1214,2411,31.37,26.8,1630,1239,1,-1,52,50,1,50,52,2,0,1,1,False,3750,776,1294,False,True,1,1250,840,3164,2861,101,50,52,Right,-0.989788966,-1.1326653290000002,-0.933077533,-1.192467186,-1.107074771,-0.568089179,,Fixed,Correct to incorrect,3,12,1,3164.0,1294.0,1530,3164,99,1250.0,3750.0
24,1,1064,1501,70.7,74.77,807,1066,1,1,52,52,2,52,50,2,0,1,3,True,750,642,1248,True,True,1,2250,828,1382,3033,172,50,50,Left,1.257105924,1.5994042080000002,1.35195044,1.583315264,-1.107074771,-0.719826665,,Fixed,"Correct, no change",3,4,0,1248.0,1382.0,1315,1530,99,2250.0,750.0
25,1,1540,2195,41.73,17.87,381,1632,1,-1,50,49,1,49,50,1,0,1,3,False,3500,910,2096,False,True,1,3500,582,3150,3144,111,49,50,Left,-0.39792954399999997,-0.413005009,-1.358453806,-1.7092013380000002,-1.666500852,-0.23831304,,Fixed,Correct to incorrect,3,9,0,2096.0,3150.0,2162,3324,99,3500.0,3500.0
26,1,1370,3011,36.63,31.27,1268,1703,-1,1,50,51,1,51,50,1,1,1,3,True,1750,858,2288,False,True,1,5250,456,1657,3240,96,51,50,Right,-0.689288912,-0.7672779470000001,-0.7201512240000001,-0.933810785,-1.666500852,-0.41028219200000005,,Fixed,Incorrect to correct,3,5,1,1657.0,2288.0,2627,0,99,5250.0,1750.0
27,1,1817,1558,42.7,23.98,379,1038,-1,1,50,52,0,52,50,2,1,1,4,True,2500,916,2105,False,True,1,2500,747,1502,3329,89,52,50,Right,-0.342514135,-0.345623685,-1.067406882,-1.355646392,-1.107074771,0.041895519,,Fixed,Incorrect to correct,3,6,1,1502.0,2105.0,2539,1502,99,2500.0,2500.0
28,1,1579,1163,51.5,48.35,676,1656,1,1,53,53,1,50,53,3,0,1,3,False,1750,766,4608,False,False,1,5250,828,1460,3478,149,50,50,Left,0.160223598,0.265670795,0.093446395,0.054522845,-0.54764869,-0.198861294,,Fixed,"Correct, no change",2,14,0,4608.0,1460.0,4608,1526,99,5250.0,1750.0
29,1,1298,904,81.62,88.73,1148,1366,1,1,53,53,2,53,50,3,0,1,1,True,1250,350,406,True,True,1,3750,828,728,3662,184,50,50,Right,1.8809577469999998,2.3579650869999997,2.016928353,2.3911101980000002,-0.54764869,-0.483116186,,Fixed,"Correct, no change",4,3,1,728.0,406.0,473,728,99,3750.0,1250.0
30,1,1377,1438,62.52,48.82,1004,1813,-1,-1,50,50,0,50,52,2,1,1,1,False,2500,660,2304,True,True,1,2500,814,1955,3705,43,52,52,Left,0.78978835,1.031178202,0.11583462,0.08171937900000001,-1.107074771,-0.403201109,,Fixed,"Incorrect, no change",3,12,0,2304.0,1955.0,2371,2018,99,2500.0,2500.0
31,1,1298,1495,43.85,40.03,600,566,1,1,53,53,1,53,50,3,0,1,1,True,750,726,1922,True,True,1,2250,852,520,3846,141,50,50,Right,-0.27681545399999996,-0.265738611,-0.30287282,-0.42691367700000005,-0.54764869,-0.483116186,,Fixed,"Correct, no change",3,2,1,520.0,1922.0,2371,520,99,2250.0,750.0
32,1,1878,1517,47.28,20.32,1051,1170,1,1,53,53,2,50,53,3,0,1,2,False,3500,696,2430,False,False,1,3500,824,2650,3979,133,50,50,Right,-0.080861997,-0.027472694,-1.241749229,-1.56743217,-0.54764869,0.10360209699999999,,Fixed,"Correct, no change",3,14,1,2650.0,2430.0,2646,2716,99,3500.0,3500.0
33,1,1681,1229,48.53,49.72,1486,1126,-1,-1,50,50,0,50,52,2,1,1,2,False,2250,774,738,True,True,1,750,592,2476,4029,50,52,52,Left,-0.009450387,0.059358907999999995,0.158705689,0.133797849,-1.107074771,-0.09567980300000001,,Fixed,"Incorrect, no change",4,8,0,738.0,2476.0,1084,2476,99,750.0,2250.0
34,1,1519,3083,52.85,40.68,1980,744,-1,1,50,53,0,50,53,3,1,1,3,False,1250,764,2602,True,False,1,3750,830,1639,4122,93,53,50,Left,0.23734813600000002,0.359448926,-0.27191038100000003,-0.38930144899999997,-0.54764869,-0.259556289,,Fixed,Incorrect to correct,2,11,0,2602.0,1639.0,2602,1777,99,3750.0,1250.0
35,1,1712,2509,54.88,28.15,1958,615,-1,-1,50,50,0,50,54,4,1,1,1,False,2250,530,702,True,True,1,750,796,2768,4179,57,54,54,Left,0.353320591,0.500463448,-0.86877093,-1.1143494809999999,0.011777391000000002,-0.064320722,,Fixed,"Incorrect, no change",3,7,0,702.0,2768.0,769,3038,99,750.0,2250.0
36,1,1088,2576,67.93,82.58,1048,1019,1,1,55,55,1,55,50,5,0,1,1,True,3750,486,840,True,True,1,1250,804,2480,4353,174,50,50,Right,1.098857797,1.4069853769999998,1.723976049,2.0352406530000002,0.571203472,-0.6955486679999999,,Fixed,"Correct, no change",2,7,1,2480.0,840.0,1417,2480,99,1250.0,3750.0
37,1,1900,1577,56.97,56.97,620,681,-1,-1,45,45,1,45,50,5,1,1,1,False,2500,508,1958,True,True,1,2500,788,2376,4395,42,50,50,Right,0.47272080200000005,0.645645888,0.504055966,0.553318857,0.571203472,0.125856928,,Fixed,"Incorrect, no change",2,10,1,2376.0,1958.0,2249,0,99,2500.0,2500.0
38,1,1347,1817,51.3,24.1,1591,849,1,-1,56,50,1,50,56,6,0,1,1,False,1750,848,4622,False,True,1,5250,749,1878,4507,112,50,56,Right,0.14879774,0.251777739,-1.06169074,-1.3487025959999999,1.130629553,-0.43354860700000003,,Fixed,Correct to incorrect,5,17,1,1878.0,4622.0,4789,0,99,5250.0,1750.0
39,1,1079,930,40.5,67.48,802,3382,1,1,50,50,2,50,44,6,0,1,3,True,1750,610,1264,True,True,1,5250,830,1550,4660,153,44,44,Right,-0.468198568,-0.49844730600000003,1.004694782,1.161479657,1.130629553,-0.704652917,,Fixed,"Correct, no change",3,6,1,1550.0,1264.0,1331,0,99,5250.0,1750.0
40,1,1111,3200,50.8,44.1,405,1163,1,1,50,50,1,50,45,5,0,1,2,True,3500,514,3098,True,True,1,3500,764,3059,4807,147,45,45,Left,0.120233096,0.21704509800000002,-0.109000319,-0.19140326300000002,0.571203472,-0.672282253,,Fixed,"Correct, no change",3,15,0,3098.0,3059.0,3319,0,99,3500.0,3500.0
41,2,1962,3036,40.88,18.33,690,639,1,1,50,50,2,45,50,5,0,1,1,False,1500,884,1837,False,False,1,1500,630,1118,4936,129,45,45,Right,-0.446489439,-0.472050498,-1.336541926,-1.682583454,0.571203472,0.18857508899999997,,Fixed,"Correct, no change",2,5,1,1118.0,1837.0,2238,1118,99,1500.0,1500.0
42,2,1724,1690,31.52,24.37,687,783,-1,-1,50,50,0,50,54,4,1,1,3,False,3500,598,2658,True,True,1,3500,802,3251,5007,71,54,54,Left,-0.981219573,-1.122245537,-1.048829419,-1.333079055,0.011777391000000002,-0.052181723,,Fixed,"Incorrect, no change",3,16,0,2658.0,3251.0,2725,3754,99,3500.0,3500.0
43,2,1044,789,76.7,89.45,428,1078,1,1,55,55,1,55,50,5,0,1,1,True,2500,902,1888,True,True,1,2500,580,1118,5189,182,50,50,Left,1.599881651,2.0161959,2.051225209,2.432772974,0.571203472,-0.74005833,,Fixed,"Correct, no change",3,8,0,1888.0,1118.0,1954,1118,99,2500.0,2500.0
44,2,1091,1655,60.37,63.18,1030,2370,1,1,55,55,2,55,50,5,0,2,2,True,750,794,1666,True,True,1,2250,654,670,5350,161,50,50,Right,0.666960381,0.881827846,0.799866341,0.9126603000000001,0.571203472,-0.692513918,,Fixed,"Correct, no change",2,5,1,670.0,1666.0,0,670,99,2250.0,750.0
45,2,1586,784,42.38,29.57,867,931,-1,1,46,50,0,46,50,4,1,1,2,False,2250,908,1151,True,False,1,750,755,800,5442,92,50,46,Left,-0.360795507,-0.36785257600000004,-0.80112991,-1.032181229,0.011777391000000002,-0.191780211,,Fixed,Incorrect to correct,4,5,0,1151.0,800.0,0,866,99,750.0,2250.0
46,2,1682,1703,23.17,22.4,903,633,1,-1,55,50,1,50,55,5,0,1,2,False,3500,632,3588,False,True,1,3500,828,2572,5541,99,50,55,Left,-1.458249126,-1.702280641,-1.142669425,-1.447073039,0.571203472,-0.094668219,,Fixed,Correct to incorrect,3,13,0,3588.0,2572.0,3933,2572,99,3500.0,3500.0
47,2,2309,1101,56.18,60.12,789,778,1,1,55,55,2,55,50,5,0,1,1,True,2500,892,2653,True,True,1,2500,560,1652,5699,158,50,50,Left,0.427588665,0.590768315,0.654104707,0.7355935020000001,0.571203472,0.539594476,,Fixed,"Correct, no change",3,11,0,2653.0,1652.0,0,1652,99,2500.0,2500.0
48,2,2945,3853,36.97,47.55,910,535,1,1,54,54,1,50,54,4,0,1,1,False,3500,670,2926,False,False,1,3500,846,2990,5840,141,50,50,Left,-0.669864954,-0.7436597509999999,0.055338778,0.008230872,0.011777391000000002,1.18296142,,Fixed,"Correct, no change",2,20,0,2926.0,2990.0,2926,3345,99,3500.0,3500.0
49,2,1516,2013,46.22,45.9,723,690,1,1,50,50,2,50,46,4,0,1,2,True,750,906,1868,True,True,1,2250,532,974,5985,145,46,46,Right,-0.141419042,-0.101105893,-0.023258182000000002,-0.087246323,0.011777391000000002,-0.262591038,,Fixed,"Correct, no change",2,4,1,974.0,1868.0,2189,974,99,2250.0,750.0
50,2,1685,1704,51.17,39.12,1052,1338,1,-1,50,47,1,50,47,3,0,1,4,True,1500,692,1774,True,False,1,1500,826,1392,6090,105,47,50,Left,0.141370933,0.242747252,-0.34622023399999996,-0.47957079700000005,-0.54764869,-0.09163347,,Fixed,Correct to incorrect,3,5,0,1774.0,1392.0,0,1789,99,1500.0,1500.0
51,2,1552,2642,59.1,28.07,1830,1143,1,1,53,53,2,50,53,3,0,1,3,False,750,730,1962,False,False,1,2250,630,1393,6233,143,50,50,Left,0.594406185,0.7936069379999999,-0.8725816909999999,-1.118978679,-0.54764869,-0.22617404100000002,,Fixed,"Correct, no change",3,10,0,1962.0,1393.0,0,1636,99,2250.0,750.0
52,2,1666,3157,28.5,41.93,685,364,1,-1,50,48,1,50,48,2,0,1,1,True,1750,708,4924,True,False,1,5250,770,1369,6326,93,48,50,Left,-1.153750022,-1.332030689,-0.21236723,-0.31697024100000004,-1.107074771,-0.110853551,,Fixed,Correct to incorrect,4,21,0,4924.0,1369.0,4924,1826,99,5250.0,1750.0
53,2,1508,1653,50.12,34.15,2336,355,-1,1,48,50,1,48,50,2,1,1,1,False,2500,612,1736,True,False,1,2500,834,2221,6417,91,50,48,Left,0.081385181,0.169808706,-0.582963804,-0.767159681,-1.107074771,-0.27068370399999997,,Fixed,Incorrect to correct,3,5,0,1736.0,2221.0,1736,2810,99,2500.0,2500.0
54,2,1613,1268,30.98,17.25,366,501,1,-1,50,47,1,47,50,3,0,1,1,False,1250,826,2010,False,True,1,3750,564,1112,6523,106,47,50,Right,-1.012069388,-1.159756789,-1.387987209,-1.745077618,-0.54764869,-0.164467463,,Fixed,Correct to incorrect,3,9,1,1112.0,2010.0,2077,1112,99,3750.0,1250.0
55,2,1386,1418,55.98,39.33,687,604,1,1,53,53,2,50,53,3,0,1,4,False,5250,924,2118,False,False,1,1750,474,3252,6669,146,50,50,Right,0.416162807,0.576875258,-0.336216985,-0.467419154,-0.54764869,-0.39409686,,Fixed,"Correct, no change",3,10,1,3252.0,2118.0,2396,3318,99,1750.0,5250.0
56,2,1125,2459,49.98,45.75,1008,1953,1,1,52,52,1,50,52,2,0,1,1,False,750,890,2188,False,False,1,2250,618,1108,6815,146,50,50,Left,0.07338708,0.16008356699999998,-0.03040336,-0.095926068,-1.107074771,-0.658120087,,Fixed,"Correct, no change",3,7,0,2188.0,1108.0,2392,1175,99,2250.0,750.0
57,2,1876,1367,51.08,54.38,721,1147,-1,1,50,52,1,52,50,2,1,1,1,True,3500,892,1482,False,True,1,3500,757,3168,6916,101,52,50,Right,0.136229297,0.23649537699999998,0.38068255700000003,0.403448594,-1.107074771,0.10157893,,Fixed,Incorrect to correct,3,15,1,3168.0,1482.0,1823,3168,99,3500.0,3500.0
58,2,1415,1619,31.25,34.48,627,1078,-1,1,50,53,0,53,50,3,1,2,1,True,1750,692,4786,False,True,1,5250,814,1642,7017,101,53,50,Left,-0.9966444809999999,-1.1410011629999999,-0.567244412,-0.748064242,-0.54764869,-0.36476094600000003,,Fixed,Incorrect to correct,3,17,0,4786.0,1642.0,4853,0,99,5250.0,1750.0
59,2,2092,2534,33.05,31.32,1559,517,-1,1,50,54,0,50,54,4,1,1,1,False,750,664,2472,True,False,1,2250,852,1041,7115,98,54,50,Left,-0.893811762,-1.015963656,-0.717769498,-0.930917537,0.011777391000000002,0.320080911,,Fixed,Incorrect to correct,4,11,0,2472.0,1041.0,0,1767,99,2250.0,750.0
60,2,1957,1580,37.52,33.47,409,716,-1,-1,50,50,0,50,55,5,1,1,3,False,3750,732,1351,True,True,1,1250,820,3034,7179,64,55,55,Right,-0.638443846,-0.7054538459999999,-0.615355278,-0.8065078590000001,0.571203472,0.183517173,,Fixed,"Incorrect, no change",4,6,1,3034.0,1351.0,1607,3034,99,1250.0,3750.0
61,2,492,1519,44.75,40.22,1229,1016,1,-1,56,50,1,50,56,6,0,1,3,False,3750,932,1220,False,True,1,1250,506,3442,7280,101,50,56,Right,-0.225399095,-0.203219857,-0.29382226100000003,-0.415919334,1.130629553,-1.298452282,,Fixed,Correct to incorrect,1,7,1,3442.0,1220.0,1599,0,99,1250.0,3750.0
62,3,928,1307,80.1,87.87,952,1487,1,1,50,50,2,50,44,6,0,1,0,True,2500,372,1240,True,True,1,2500,840,2114,7463,183,44,44,Right,1.79412123,2.252377858,1.975962665,2.3413463269999997,1.130629553,-0.857401987,,Fixed,"Correct, no change",1,6,1,2114.0,1240.0,1307,2114,99,2500.0,2500.0
63,3,1241,1524,35.17,59.63,838,1318,1,1,55,55,1,55,50,5,0,1,3,True,5250,618,1906,True,True,1,1750,796,4304,7609,146,50,50,Right,-0.7726976720000001,-0.868697258,0.630763792,0.707239669,0.571203472,-0.5407764310000001,,Fixed,"Correct, no change",3,12,1,4304.0,1906.0,0,4304,99,1750.0,5250.0
64,3,2670,1523,27.47,59.3,1428,894,-1,1,50,55,1,55,50,5,1,1,2,True,2500,888,1677,False,True,1,2500,590,1264,7724,115,55,50,Right,-1.212593188,-1.4035799290000002,0.6150444,0.68814423,0.571203472,0.904776028,,Fixed,Incorrect to correct,3,6,0,1677.0,1264.0,1873,1264,99,2500.0,2500.0
65,3,1350,1826,37.68,24.22,402,412,1,1,50,50,1,50,44,6,0,1,1,True,750,850,2044,True,True,1,2250,652,1162,7854,130,44,44,Left,-0.62930316,-0.6943394009999999,-1.055974597,-1.3417588,1.130629553,-0.43051385700000006,,Fixed,"Correct, no change",3,7,0,2044.0,1162.0,2331,1162,99,2250.0,750.0
66,3,1359,6162,46.18,30.78,1849,1700,1,1,56,56,2,50,56,6,0,1,3,False,1500,765,1496,False,False,1,1500,836,1516,7992,138,50,50,Left,-0.143704213,-0.103884504,-0.7434921390000001,-0.962164619,1.130629553,-0.421409608,,Fixed,"Correct, no change",3,8,0,1496.0,1516.0,1496,0,99,1500.0,1500.0
67,3,1789,1428,30.2,52.85,1161,676,-1,-1,45,45,0,45,50,5,1,1,1,False,1750,894,1954,True,True,1,5250,753,1578,8049,57,50,50,Right,-1.056630233,-1.2139397090000001,0.30780173899999996,0.314915195,0.571203472,0.013571188,,Fixed,"Incorrect, no change",3,5,1,1578.0,1954.0,2021,0,99,5250.0,1750.0
68,3,2795,2061,37.58,49.88,801,734,1,-1,50,44,1,44,50,6,0,1,2,False,1750,892,2608,False,True,1,5250,662,2128,8142,93,44,50,Right,-0.635016089,-0.7012859290000001,0.166327212,0.143056244,1.130629553,1.031223933,,Fixed,Correct to incorrect,3,8,1,2128.0,2608.0,2949,2040,99,5250.0,1750.0
69,3,1256,1550,55.58,67.95,780,4481,1,1,50,50,2,50,44,6,0,1,1,True,1500,874,816,True,True,1,1500,684,1304,8302,160,44,44,Right,0.39331109200000003,0.549089146,1.027083007,1.1886761909999999,1.130629553,-0.525602682,,Fixed,"Correct, no change",4,4,1,1304.0,816.0,883,1304,99,1500.0,1500.0
70,3,1087,1346,64.87,63.2,936,1544,1,1,50,50,1,45,50,5,0,1,1,False,1500,552,1526,False,False,1,1500,792,1152,8465,163,45,45,Left,0.9240421759999999,1.194421615,0.800819032,0.9138175999999999,0.571203472,-0.696560251,,Fixed,"Correct, no change",2,6,0,1526.0,1152.0,1526,1219,99,1500.0,1500.0
71,3,993,2069,76.82,38.8,814,525,1,1,55,55,2,50,55,5,0,1,4,False,1750,736,3950,False,False,1,5250,698,2134,8622,157,50,50,Left,1.606737166,2.0245317330000003,-0.361463281,-0.498087586,0.571203472,-0.7916490759999999,,Fixed,"Correct, no change",3,12,0,3950.0,2134.0,0,2725,99,5250.0,1750.0
72,3,1125,1638,55.35,48.9,753,747,1,1,54,54,1,50,54,4,0,1,1,False,2500,932,2302,False,False,1,2500,482,1602,8773,151,50,50,Left,0.380171356,0.533112131,0.119645381,0.086348577,0.011777391000000002,-0.658120087,,Fixed,"Correct, no change",3,9,0,2302.0,1602.0,2302,1669,99,2500.0,2500.0
73,3,3184,1386,45.7,58.38,629,439,1,1,50,50,2,50,46,4,0,1,0,True,750,758,1872,True,True,1,2250,876,1056,8924,151,46,46,Left,-0.17112627100000002,-0.13722784,0.571220641,0.63490846,0.011777391000000002,1.424729816,,Fixed,"Correct, no change",3,6,0,1872.0,1056.0,1939,1078,99,2250.0,750.0
74,3,1686,1296,54.07,34.27,1017,846,-1,1,47,50,0,50,47,3,1,1,3,True,2250,854,1212,False,True,1,750,642,1608,9013,89,50,47,Right,0.307045868,0.44419657,-0.577247661,-0.760215885,-0.54764869,-0.090621886,,Fixed,Incorrect to correct,3,4,1,1608.0,1212.0,1343,1608,99,750.0,2250.0
75,3,1144,2795,39.33,5.98,1010,659,1,-1,54,50,1,54,50,4,0,1,1,True,3500,564,2882,True,False,1,3500,822,3192,9129,116,50,54,Right,-0.535039835,-0.579721685,-1.924828261,-2.397215792,0.011777391000000002,-0.638900006,,Fixed,Correct to incorrect,3,18,1,3192.0,2882.0,3088,3258,99,3500.0,3500.0
76,3,2375,1666,12.97,35.25,695,988,-1,1,46,50,1,50,46,4,1,1,5,True,3750,924,1641,False,True,1,1250,762,2600,9239,110,50,46,Left,-2.040967862,-2.410826517,-0.53056583,-0.703508218,0.011777391000000002,0.60635897,,Fixed,Incorrect to correct,3,10,0,1641.0,2600.0,1725,0,99,1250.0,3750.0
77,3,1540,3769,80.83,25.57,1199,1278,1,1,50,50,1,45,50,5,0,1,1,False,2500,904,2778,False,False,1,2500,494,1352,9391,152,45,45,Right,1.83582561,2.303087514,-0.991667994,-1.263641095,0.571203472,-0.23831304,,Fixed,"Correct, no change",3,9,1,1352.0,2778.0,3088,1584,99,2500.0,2500.0
78,3,1479,1329,29.88,30.7,630,1344,-1,1,50,55,1,55,50,5,1,1,3,True,3500,916,3213,False,True,1,3500,551,2520,9491,100,55,50,Right,-1.074911605,-1.236168599,-0.747302901,-0.9667938159999999,0.571203472,-0.300019618,,Fixed,Incorrect to correct,4,11,1,2520.0,3213.0,3581,2520,99,3500.0,3500.0
79,3,1096,883,55.68,64.22,1132,872,1,1,50,50,1,50,44,6,0,1,2,True,1250,412,1324,True,True,1,3750,832,2308,9650,159,44,44,Left,0.399024021,0.556035674,0.849406243,0.9728398659999999,1.130629553,-0.687456002,,Fixed,"Correct, no change",3,5,0,1324.0,2308.0,1391,2308,99,3750.0,1250.0
80,3,2383,2086,46.08,10.83,458,2336,1,1,50,50,1,45,50,5,0,1,3,False,2250,585,2104,False,False,1,750,712,1059,9778,128,45,45,Right,-0.149417142,-0.11083103300000001,-1.6938008340000001,-2.1165707030000003,0.571203472,0.614451636,,Fixed,"Correct, no change",3,7,1,1059.0,2104.0,2138,0,99,750.0,2250.0
81,3,2490,2674,45.88,58.85,403,1038,1,1,50,50,2,45,50,5,0,1,5,False,5250,910,1940,False,False,1,1750,510,2677,9929,151,45,45,Left,-0.160843,-0.12472408900000001,0.593608865,0.662104995,0.571203472,0.722691043,,Fixed,"Correct, no change",3,9,0,1940.0,2677.0,1940,2991,99,1750.0,5250.0
82,3,1842,724,31.05,32.12,717,714,1,1,54,54,1,50,54,4,0,2,3,False,1250,608,1860,False,False,1,3750,859,1421,10060,131,50,50,Right,-1.008070338,-1.15489422,-0.6796618809999999,-0.884625564,0.011777391000000002,0.06718510000000001,,Fixed,"Correct, no change",3,6,1,1421.0,1860.0,1860,0,99,3750.0,1250.0
83,4,974,1182,76.6,91.48,915,969,1,1,54,54,2,50,54,4,0,1,1,False,2500,860,2096,False,False,1,2500,550,1526,10243,183,50,50,Left,1.5941687219999998,2.009249371,2.147923286,2.550238856,0.011777391000000002,-0.8108691579999999,,Fixed,"Correct, no change",3,7,0,2096.0,1526.0,2096,1593,99,2500.0,2500.0
84,4,1497,5162,64.28,66.38,1039,1100,1,1,50,50,1,47,50,3,0,1,3,False,1500,598,1278,False,False,1,1500,802,1484,10408,165,47,47,Right,0.890335896,1.153437098,0.952296809,1.097828193,-0.54764869,-0.28181112,,Fixed,"Correct, no change",2,4,1,1484.0,1278.0,1278,2353,99,1500.0,1500.0
85,4,1333,1360,61.08,77.55,2747,929,1,1,50,50,2,50,47,3,0,1,1,True,2250,684,1124,True,True,1,750,864,1724,10576,168,47,47,Right,0.707522175,0.931148196,1.484374408,1.744179871,-0.54764869,-0.44771077200000003,,Fixed,"Correct, no change",3,4,1,1724.0,1124.0,1471,1724,99,750.0,2250.0
86,4,1184,1464,80.22,57.72,1034,4586,-1,-1,48,48,0,48,50,2,1,1,1,False,3500,544,2399,True,True,1,3500,856,2926,10606,30,50,50,Right,1.800976744,2.260713692,0.539781857,0.596717582,-1.107074771,-0.5984366760000001,,Fixed,"Incorrect, no change",3,10,1,2926.0,2399.0,2755,2926,99,3500.0,3500.0
87,4,2279,1315,26.32,38.42,420,868,-1,1,50,53,0,53,50,3,1,1,1,True,750,912,2309,False,True,1,2250,739,1154,10711,105,53,50,Left,-1.278291869,-1.483465003,-0.379564399,-0.520076274,-0.54764869,0.509246978,,Fixed,Incorrect to correct,4,8,0,2309.0,1154.0,0,1404,99,2250.0,750.0
88,4,1731,2039,44.82,19.62,1056,1622,-1,-1,50,50,0,50,54,4,1,1,3,False,2500,749,1813,True,True,1,2500,766,1748,10778,67,54,54,Right,-0.221400045,-0.19835728800000002,-1.275093394,-1.607937647,0.011777391000000002,-0.04510064,,Fixed,"Incorrect, no change",3,4,1,1748.0,1813.0,1937,1748,99,2500.0,2500.0
89,4,3141,1575,41.38,61.22,636,781,1,1,55,55,1,55,50,5,0,1,1,True,3750,755,826,True,True,1,1250,856,3416,10928,150,50,50,Right,-0.417924795,-0.43731785700000003,0.70650268,0.799244966,0.571203472,1.381231736,,Fixed,"Correct, no change",4,10,1,3416.0,826.0,1173,3416,99,1250.0,3750.0
90,4,2587,923,49.0,58.35,382,847,1,1,50,50,2,50,45,5,0,1,2,True,750,640,2573,True,True,1,2250,874,716,11081,153,45,45,Right,0.017400378,0.092007591,0.569791605,0.633172511,0.571203472,0.820814618,,Fixed,"Correct, no change",4,7,1,716.0,2573.0,0,716,99,2250.0,750.0
91,4,2550,1947,27.92,33.78,406,401,-1,1,46,50,0,50,46,4,1,1,1,True,1250,900,3534,False,True,1,3750,765,968,11183,102,50,46,Left,-1.186885009,-1.372320552,-0.600588576,-0.7885697190000001,0.011777391000000002,0.783386038,,Fixed,Incorrect to correct,2,10,0,3534.0,968.0,3601,1308,99,3750.0,1250.0
92,4,1436,1935,15.3,18.22,442,620,1,-1,50,45,1,45,50,5,0,1,4,False,1250,736,1602,False,True,1,3750,778,2810,11280,97,45,50,Right,-1.9078566209999999,-2.24897241,-1.341781723,-1.6889486,0.571203472,-0.343517698,,Fixed,Correct to incorrect,5,9,1,2810.0,1602.0,1911,0,99,3750.0,1250.0
93,4,2127,1630,56.63,30.85,882,554,-1,-1,50,50,1,50,55,5,1,1,3,False,3750,852,1420,True,True,1,1250,646,2888,11335,55,55,55,Left,0.453296844,0.6220276920000001,-0.7401577229999999,-0.9581140709999999,0.571203472,0.355486325,,Fixed,"Incorrect, no change",3,11,0,1420.0,2888.0,1487,3162,99,1250.0,3750.0
94,4,1525,1516,28.47,28.45,930,494,1,1,50,50,1,50,44,6,0,1,1,True,1500,672,1332,True,True,1,1500,806,1335,11463,128,44,44,Left,-1.1554639009999998,-1.334114647,-0.854480573,-1.0969899909999998,1.130629553,-0.253486789,,Fixed,"Correct, no change",3,6,0,1332.0,1335.0,1399,1602,99,1500.0,1500.0
95,4,1762,4125,37.35,27.1,2059,521,-1,1,44,50,1,44,50,6,1,1,2,False,3500,763,2462,True,False,1,3500,864,3490,11557,94,50,44,Right,-0.648155825,-0.717262944,-0.918787177,-1.175107696,1.130629553,-0.01374156,,Fixed,Incorrect to correct,3,12,1,3490.0,2462.0,0,3959,99,3500.0,3500.0
96,4,1950,1359,67.5,70.0,1178,1608,1,1,57,57,1,57,50,7,0,1,1,True,3500,739,2860,True,True,1,3500,780,3194,11725,168,50,50,Left,1.074292203,1.3771153059999999,1.124733775,1.307299373,1.690055635,0.17643609,,Fixed,"Correct, no change",5,17,0,2860.0,3194.0,2927,3392,99,3500.0,3500.0
97,4,1469,2232,77.78,67.5,688,1261,1,1,57,57,2,50,57,7,0,1,3,False,1250,904,3112,False,False,1,3750,622,1214,11896,171,50,50,Left,1.6615812819999998,2.091218404,1.005647472,1.1626369559999998,1.690055635,-0.310135451,,Fixed,"Correct, no change",4,12,0,3112.0,1214.0,3112,1636,99,3750.0,1250.0
98,4,2167,1517,51.6,62.43,889,841,1,1,50,50,1,50,44,6,0,1,2,True,750,792,2116,True,True,1,2250,728,1458,12052,156,44,44,Left,0.165936527,0.272617324,0.7641404509999999,0.869261575,1.130629553,0.395949655,,Fixed,"Correct, no change",4,5,0,2116.0,1458.0,2183,0,99,2250.0,750.0
99,4,1714,893,65.88,66.32,1184,994,1,1,50,50,2,50,44,6,0,1,1,True,1500,514,1326,True,True,1,1500,842,1404,12217,165,44,44,Right,0.981742757,1.264581549,0.949438737,1.094356295,1.130629553,-0.062297556,,Fixed,"Correct, no change",3,6,1,1404.0,1326.0,1393,1404,99,1500.0,1500.0
100,4,10569,1855,59.05,33.92,1063,748,1,1,50,50,1,50,45,5,0,1,0,True,3500,734,3160,True,True,1,3500,718,2851,12362,145,45,45,Left,0.591549721,0.790133674,-0.5939197429999999,-0.780468624,0.571203472,8.895272087999999,,Fixed,"Correct, no change",2,15,0,3160.0,2851.0,3227,3192,99,3500.0,3500.0
101,4,1214,1401,60.85,57.07,393,1147,1,1,50,50,2,45,50,5,0,1,0,False,3750,902,846,False,False,1,1250,450,2656,12520,158,45,45,Right,0.6943824390000001,0.915171181,0.508819418,0.5591053539999999,0.571203472,-0.568089179,,Fixed,"Correct, no change",4,7,1,2656.0,846.0,1108,2888,99,1250.0,3750.0
102,4,5175,1878,53.42,61.0,949,534,1,1,50,50,1,50,46,4,0,1,4,True,5250,874,2507,True,True,1,1750,690,2704,12676,156,46,46,Left,0.269911831,0.399044137,0.696023086,0.786514673,0.011777391000000002,3.438792059,,Fixed,"Correct, no change",3,13,0,2507.0,2704.0,2590,2660,99,1750.0,5250.0
103,4,1685,1155,69.37,12.95,924,1393,1,1,50,50,2,50,46,4,0,1,5,True,3500,624,1890,True,True,1,3500,848,3784,12816,140,46,46,Left,1.1811239709999999,1.5070153830000002,-1.592815649,-1.993896974,0.011777391000000002,-0.09163347,,Fixed,"Correct, no change",3,10,0,1890.0,3784.0,1957,3776,99,3500.0,3500.0
104,5,5678,3906,20.02,24.13,334,376,1,-1,50,47,1,47,50,3,0,1,1,False,1750,876,5024,False,True,1,5250,748,1084,12913,97,47,50,Right,-1.6382063830000002,-1.9210962790000001,-1.060261704,-1.346966647,-0.54764869,3.947618432,,Fixed,Correct to incorrect,3,13,1,1084.0,5024.0,6757,1084,99,5250.0,1750.0
105,5,1552,1500,64.63,74.25,560,672,1,1,53,53,2,53,50,3,0,1,2,True,2500,680,1214,True,True,1,2500,828,1736,13082,169,50,50,Left,0.9103311470000001,1.1777499470000001,1.327180489,1.553225481,-0.54764869,-0.22617404100000002,,Fixed,"Correct, no change",2,5,0,1214.0,1736.0,1517,1736,99,2500.0,2500.0
106,5,1259,1655,53.22,50.35,1275,525,1,1,52,52,1,52,50,2,0,1,1,True,2250,754,690,True,True,1,750,544,1266,13233,151,50,50,Left,0.258485973,0.38515108,0.18871543699999999,0.17025277800000002,-1.107074771,-0.5225679329999999,,Fixed,"Correct, no change",4,4,0,690.0,1266.0,929,1478,99,750.0,2250.0
107,5,1800,2935,50.53,33.83,878,773,1,1,52,52,2,52,50,2,0,1,2,True,3750,772,1084,True,True,1,1250,766,3498,13374,141,50,50,Right,0.10480818900000001,0.198289472,-0.59820685,-0.7856764709999999,-1.107074771,0.024698604,,Fixed,"Correct, no change",3,9,1,3498.0,1084.0,1483,3498,99,1250.0,3750.0
108,5,1571,4602,48.92,23.87,760,722,1,-1,50,49,1,49,50,1,0,1,1,False,1250,856,3492,False,True,1,3750,742,848,13486,112,49,50,Left,0.012830035,0.08645036800000001,-1.07264668,-1.3620115380000002,-1.666500852,-0.20695396,,Fixed,Correct to incorrect,4,9,0,3492.0,848.0,4342,1148,99,3750.0,1250.0
109,5,1227,2134,42.88,24.13,1134,1753,1,-1,50,49,2,49,50,1,0,1,2,False,3500,890,3738,False,True,1,3500,706,2335,13594,108,49,50,Left,-0.332230863,-0.333119935,-1.060261704,-1.346966647,-1.666500852,-0.5549385960000001,,Fixed,Correct to incorrect,4,13,0,3738.0,2335.0,3805,2466,99,3500.0,3500.0
110,5,1639,3381,51.55,28.02,362,3487,-1,-1,50,50,0,50,50,0,1,1,3,False,1750,622,2699,True,True,1,5250,854,2584,13653,59,50,50,Right,0.163080062,0.26914406,-0.874963417,-1.121871927,-2.225926933,-0.138166299,,Fixed,"Incorrect, no change",3,11,1,2584.0,2699.0,3105,2584,99,5250.0,1750.0
111,5,1412,1735,23.53,51.17,874,819,-1,-1,50,50,0,50,51,1,1,1,1,False,2250,754,1066,True,True,1,750,834,2130,13715,62,51,51,Right,-1.4376825830000002,-1.67727314,0.22777574399999997,0.217702051,-1.666500852,-0.367795696,,Fixed,"Incorrect, no change",3,9,1,2130.0,1066.0,1439,2130,99,750.0,2250.0
112,5,1278,1831,57.72,73.15,989,629,-1,-1,50,50,0,50,52,2,1,0,1,False,1500,462,1172,True,True,1,1500,518,1644,13749,34,52,52,Right,0.5155677679999999,0.6977448490000001,1.274782516,1.489574018,-1.107074771,-0.503347851,,Fixed,"Incorrect, no change",2,7,1,1644.0,1172.0,1239,1644,99,1500.0,1500.0
113,5,1129,1729,46.9,36.78,894,1085,1,1,50,50,1,50,47,3,0,1,2,True,1500,692,1366,True,True,1,1500,776,1720,13890,141,47,47,Left,-0.102571126,-0.05386950099999999,-0.457685013,-0.614974819,-0.54764869,-0.654073754,,Fixed,"Correct, no change",4,8,0,1366.0,1720.0,1501,1920,99,1500.0,1500.0
114,5,3016,1298,9.83,32.87,688,1110,-1,1,47,50,1,47,50,3,1,1,4,False,5250,838,2346,True,False,1,1750,604,3978,14001,111,50,47,Right,-2.2203538259999998,-2.628947502,-0.64393599,-0.8412268390000001,-0.54764869,1.254783831,,Fixed,Incorrect to correct,4,16,1,3978.0,2346.0,2622,4045,99,1750.0,5250.0
115,5,1681,1010,44.77,66.3,629,2790,1,1,50,50,1,50,46,4,0,1,1,True,2500,820,3234,True,True,1,2500,603,644,14156,155,46,46,Left,-0.224256509,-0.201830552,0.948486047,1.093198996,0.011777391000000002,-0.09567980300000001,,Fixed,"Correct, no change",4,6,0,3234.0,644.0,3300,644,99,2500.0,2500.0
116,5,1791,4634,24.53,43.37,1666,903,1,1,54,54,2,50,54,4,0,1,1,False,3750,734,1184,False,False,1,1250,852,1531,14289,133,50,50,Left,-1.380553295,-1.6078078580000001,-0.14377352,-0.233644689,0.011777391000000002,0.015594354,,Fixed,"Correct, no change",3,6,0,1184.0,1531.0,1184,3145,99,1250.0,3750.0
117,5,1703,3330,41.35,43.28,979,980,1,1,50,50,1,50,47,3,0,1,1,True,1750,914,4028,True,True,1,5250,616,1680,14430,141,47,47,Right,-0.41963867299999996,-0.439401816,-0.148060627,-0.238852536,-0.54764869,-0.07342497099999999,,Fixed,"Correct, no change",1,13,1,1680.0,4028.0,0,1680,99,5250.0,1750.0
118,5,1706,2425,54.07,54.08,733,1186,1,1,50,50,2,47,50,3,0,1,1,False,750,830,2122,False,False,1,2250,730,624,14584,154,47,47,Left,0.307045868,0.44419657,0.3663922,0.38608910399999996,-0.54764869,-0.070390222,,Fixed,"Correct, no change",5,7,0,2122.0,624.0,2122,853,99,2250.0,750.0
119,5,2032,3527,51.13,35.67,1183,452,1,1,52,52,1,52,50,2,0,1,3,True,3500,930,3082,True,True,1,3500,636,2484,14726,142,50,50,Right,0.139085761,0.239968641,-0.510559332,-0.679204932,-1.107074771,0.25938591699999997,,Fixed,"Correct, no change",3,16,1,2484.0,3082.0,3398,2484,99,3500.0,3500.0
120,5,2679,1234,26.75,41.38,1480,723,-1,1,48,50,1,48,50,2,1,1,4,False,2500,868,2001,True,False,1,2500,680,1926,14832,106,50,48,Right,-1.2537262759999999,-1.453594932,-0.238566217,-0.348795973,-1.107074771,0.9138802770000001,,Fixed,Incorrect to correct,4,6,1,1926.0,2001.0,2244,2113,99,2500.0,2500.0
121,5,1878,1569,63.88,63.9,1005,361,1,1,53,53,1,53,50,3,0,1,1,True,3500,860,2713,True,True,1,3500,603,3444,14994,162,50,50,Right,0.8674841809999999,1.125650986,0.8341631970000001,0.954323076,-0.54764869,0.10360209699999999,,Fixed,"Correct, no change",4,14,1,3444.0,2713.0,3417,3444,99,3500.0,3500.0
122,5,1549,1720,57.97,43.62,1077,143,1,1,50,50,2,47,50,3,0,1,2,False,2500,898,2041,False,False,1,2500,729,2516,15143,149,47,47,Right,0.52985009,0.715111169,-0.13186489,-0.219178447,-0.54764869,-0.22920879100000002,,Fixed,"Correct, no change",4,11,1,2516.0,2041.0,2310,2516,99,2500.0,2500.0
123,5,1342,1859,36.77,21.65,789,407,1,1,52,52,1,50,52,2,0,1,1,False,750,896,2385,False,False,1,2250,540,967,15271,128,50,50,Left,-0.6812908120000001,-0.757552807,-1.178395316,-1.490471764,-1.107074771,-0.43860652299999997,,Fixed,"Correct, no change",2,4,0,2385.0,967.0,0,1315,99,2250.0,750.0
124,5,3551,2005,41.25,26.2,538,1304,1,1,52,52,2,52,50,2,0,1,1,True,750,908,1118,True,True,1,2250,561,2034,15404,133,50,50,Left,-0.42535160200000005,-0.446348344,-0.9616582459999999,-1.2271861659999999,-1.107074771,1.795980867,,Fixed,"Correct, no change",4,11,0,1118.0,2034.0,1185,2394,99,2250.0,750.0
125,6,2533,1783,26.18,24.03,364,675,1,1,51,51,1,51,50,1,0,1,1,True,1750,952,3874,True,True,1,5250,578,2061,15529,125,50,50,Left,-1.28628997,-1.493190143,-1.065025156,-1.352753144,-1.666500852,0.766189123,,Fixed,"Correct, no change",2,15,0,3874.0,2061.0,3940,2360,99,5250.0,1750.0
126,6,2841,3286,42.97,32.95,662,1521,-1,-1,49,49,1,50,49,1,1,2,3,True,1750,1179,4406,False,False,1,5250,652,1366,15590,61,50,50,Left,-0.327089227,-0.326868059,-0.640125229,-0.8365976409999999,-1.666500852,1.077756763,,Fixed,"Incorrect, no change",3,13,0,4406.0,1366.0,4406,1729,99,5250.0,1750.0
127,6,1079,1579,40.72,56.4,894,1146,1,1,50,50,1,50,48,2,0,1,1,True,750,878,2242,True,True,1,2250,530,688,15738,148,48,48,Right,-0.455630125,-0.483164944,0.476904289,0.5203358260000001,-1.107074771,-0.704652917,,Fixed,"Correct, no change",3,9,1,688.0,2242.0,2309,688,99,2250.0,750.0
128,6,1971,1588,10.87,15.85,558,1165,1,1,50,50,2,48,50,2,0,1,3,False,1750,750,4390,False,False,1,5250,826,1531,15850,112,48,48,Left,-2.160939366,-2.556703609,-1.454675538,-1.8260885709999999,-1.107074771,0.19767933899999998,,Fixed,"Correct, no change",4,16,0,4390.0,1531.0,4390,1930,99,5250.0,1750.0
129,6,1241,1755,50.48,58.38,824,922,-1,-1,50,50,0,50,51,1,1,1,1,False,1750,590,3218,True,True,1,5250,808,1720,15894,44,51,51,Right,0.10195172400000001,0.19481620800000002,0.571220641,0.63490846,-1.666500852,-0.5407764310000001,,Fixed,"Incorrect, no change",3,8,1,1720.0,3218.0,3285,0,99,5250.0,1750.0
130,6,2053,1290,55.83,32.88,1158,746,-1,-1,50,50,0,50,52,2,1,1,2,False,1250,771,2150,True,True,1,3750,980,1584,15949,55,52,52,Right,0.407593414,0.566455466,-0.643459645,-0.840648189,-1.107074771,0.280629165,,Fixed,"Incorrect, no change",3,8,1,1584.0,2150.0,2476,1584,99,3750.0,1250.0
131,6,1205,911,40.22,41.3,1011,689,-1,1,50,53,0,50,53,3,1,1,1,False,5250,660,1658,True,False,1,1750,844,976,16048,99,53,50,Left,-0.48419476899999997,-0.517897585,-0.24237697800000002,-0.35342517,-0.54764869,-0.577193428,,Fixed,Incorrect to correct,3,7,0,1658.0,976.0,1658,1042,99,1750.0,5250.0
132,6,947,910,21.9,32.17,1694,783,-1,1,50,54,0,50,54,4,1,1,1,False,2500,918,1202,True,False,1,2500,744,2316,16153,105,54,50,Right,-1.530803322,-1.790501549,-0.677280155,-0.881732315,0.011777391000000002,-0.838181905,,Fixed,Incorrect to correct,3,10,1,2316.0,1202.0,1202,2383,99,2500.0,2500.0
133,6,1219,1324,78.72,90.7,1077,962,1,1,55,55,1,50,55,5,0,1,1,False,3750,904,892,False,False,1,1250,422,978,16337,184,50,50,Left,1.7152828119999999,2.156515769,2.11076836,2.5051041819999997,0.571203472,-0.563031262,,Fixed,"Correct, no change",4,4,0,892.0,978.0,892,1045,99,1250.0,3750.0
134,6,1576,1398,47.3,56.3,917,380,-1,1,50,55,1,55,50,5,1,1,1,True,2250,870,572,False,True,1,750,568,2022,16441,104,55,50,Right,-0.07971941099999999,-0.026083389,0.47214083700000004,0.51454933,0.571203472,-0.201896044,,Fixed,Incorrect to correct,4,7,1,2022.0,572.0,639,2022,99,750.0,2250.0
135,6,1701,2272,37.7,53.87,833,533,-1,1,44,50,0,44,50,6,1,1,3,False,1500,644,1598,True,False,1,1500,812,1386,16548,107,50,44,Left,-0.628160574,-0.692950095,0.356388951,0.373937461,1.130629553,-0.075448138,,Fixed,Incorrect to correct,3,7,0,1598.0,1386.0,1598,1681,99,1500.0,1500.0
136,6,1282,895,64.42,82.28,1385,720,1,1,50,50,1,50,43,7,0,1,1,True,1750,424,646,True,True,1,5250,856,1500,16721,173,43,43,Right,0.898333997,1.163162238,1.7096856930000002,2.017881163,1.690055635,-0.49930151799999994,,Fixed,"Correct, no change",4,6,1,1500.0,646.0,713,1500,99,5250.0,1750.0
137,6,1774,926,9.87,8.67,790,770,1,1,50,50,2,50,43,7,0,1,2,True,750,932,2132,True,True,1,2250,606,1257,16829,108,43,43,Left,-2.218068654,-2.626168891,-1.796691399,-2.241559031,1.690055635,-0.001602561,,Fixed,"Correct, no change",4,8,0,2132.0,1257.0,2199,0,99,2250.0,750.0
138,6,1087,2268,25.62,28.95,645,1090,-1,1,44,50,0,44,50,6,1,1,1,False,2500,552,2270,True,False,1,2500,818,1652,16930,101,50,44,Left,-1.318282371,-1.5320907,-0.830663313,-1.0680575079999999,1.130629553,-0.696560251,,Fixed,Incorrect to correct,4,11,0,2270.0,1652.0,2270,1718,99,2500.0,2500.0
139,6,1287,3561,17.95,29.12,590,738,1,1,50,50,1,43,50,7,0,1,1,False,1250,751,3906,False,False,1,3750,866,997,17052,122,43,43,Left,-1.756464009,-2.064889413,-0.8225654440000001,-1.0582204640000001,1.690055635,-0.494243602,,Fixed,"Correct, no change",4,9,0,3906.0,997.0,0,2565,99,3750.0,1250.0
140,6,1873,1789,68.2,21.67,320,3007,1,1,50,50,2,43,50,7,0,1,1,False,750,926,2613,False,False,1,2250,747,882,17196,144,43,43,Right,1.114282705,1.4257410030000002,-1.177442626,-1.489314465,1.690055635,0.098544181,,Fixed,"Correct, no change",3,9,1,882.0,2613.0,2898,949,99,2250.0,750.0
141,6,1075,1574,89.42,69.3,1042,2405,1,1,50,50,1,44,50,6,0,1,1,False,2250,910,1188,False,False,1,750,476,2231,17374,178,44,44,Right,2.326566192,2.899794286,1.09138961,1.266793896,1.130629553,-0.70869925,,Fixed,"Correct, no change",3,8,1,2231.0,1188.0,1414,0,99,750.0,2250.0
142,6,1355,2940,60.53,83.1,839,987,1,1,50,50,2,44,50,6,0,1,1,False,1250,1480,3530,False,False,1,3750,740,962,17545,171,44,44,Left,0.6761010670000001,0.8929422909999999,1.748746,2.065330436,1.130629553,-0.425455941,,Fixed,"Correct, no change",3,11,0,3530.0,962.0,3530,1719,99,3750.0,1250.0
143,6,1105,1361,85.08,37.37,1065,628,1,1,55,55,1,55,50,5,0,1,3,True,3750,476,1210,True,True,1,1250,858,2901,17705,160,50,50,Left,2.078625083,2.598314962,-0.429580646,-0.580834489,0.571203472,-0.678351752,,Fixed,"Correct, no change",3,11,0,1210.0,2901.0,1277,3110,99,1250.0,3750.0
144,6,1191,1299,35.92,32.78,326,656,1,1,55,55,2,55,50,5,0,1,2,True,1500,630,1409,True,True,1,1500,836,1432,17838,133,50,50,Left,-0.7298507059999999,-0.8165982970000001,-0.648223097,-0.8464346859999999,0.571203472,-0.591355593,,Fixed,"Correct, no change",4,7,0,1409.0,1432.0,1629,1432,99,1500.0,1500.0
145,6,1346,2594,17.93,14.32,684,499,-1,-1,46,46,0,50,46,4,1,1,3,True,3500,904,2624,False,False,1,3500,648,3494,17921,83,50,50,Right,-1.757606594,-2.066278718,-1.527556355,-1.91462197,0.011777391000000002,-0.43456019,,Fixed,"Incorrect, no change",3,14,1,3494.0,2624.0,2828,3561,99,3500.0,3500.0
146,7,1520,1670,17.48,9.12,594,1012,-1,1,50,55,0,55,50,5,1,1,3,True,5250,914,2110,False,True,1,1750,729,4048,18016,95,55,50,Left,-1.7833147740000002,-2.097538095,-1.775255865,-2.215519796,0.571203472,-0.258544705,,Fixed,Incorrect to correct,3,16,0,2110.0,4048.0,2176,4242,99,1750.0,5250.0
147,7,2321,887,63.23,78.32,436,884,1,1,56,56,1,50,56,6,0,1,1,False,3500,862,2960,False,False,1,3500,584,1130,18186,170,50,50,Left,0.8303501440000001,1.0804985520000001,1.52105299,1.788735895,1.130629553,0.551733475,,Fixed,"Correct, no change",3,9,0,2960.0,1130.0,2960,1197,99,3500.0,3500.0
148,7,1034,2168,66.95,18.38,1603,422,1,1,50,50,2,44,50,6,0,1,5,False,1500,912,1620,False,False,1,1500,510,1653,18328,142,44,44,Right,1.042871095,1.338909401,-1.3341602,-1.679690205,1.130629553,-0.750174163,,Fixed,"Correct, no change",3,6,1,1653.0,1620.0,1620,0,99,1500.0,1500.0
149,7,1833,1366,20.35,17.57,788,887,1,1,50,50,1,45,50,5,0,1,1,False,3750,626,964,False,False,1,1250,846,3700,18446,118,45,45,Right,-1.6193537180000002,-1.898172736,-1.3727441619999998,-1.7265608280000002,0.571203472,0.058080850999999996,,Fixed,"Correct, no change",3,10,1,3700.0,964.0,1210,0,99,1250.0,3750.0
150,7,776,1385,69.87,50.33,999,1104,1,1,55,55,2,55,50,5,0,1,2,True,3750,528,1392,True,True,1,1250,862,2034,18605,159,50,50,Left,1.209688615,1.541748024,0.187762746,0.169095479,0.571203472,-1.01116264,,Fixed,"Correct, no change",3,4,0,1392.0,2034.0,1459,2378,99,1250.0,3750.0
151,7,738,1664,54.13,44.62,759,1236,1,-1,50,46,1,46,50,4,0,1,2,False,3750,922,1360,False,True,1,1250,464,1485,18709,104,46,50,Left,0.310473625,0.44836448700000003,-0.084230369,-0.161313481,0.011777391000000002,-1.049602804,,Fixed,Correct to incorrect,3,7,0,1360.0,1485.0,1427,1766,99,1250.0,3750.0
152,7,3028,1391,29.3,26.88,2541,664,1,1,54,54,2,50,54,4,0,1,1,False,1500,633,1414,False,False,1,1500,790,1830,18836,127,50,50,Left,-1.108046592,-1.276458463,-0.929266771,-1.1878379890000001,0.011777391000000002,1.26692283,,Fixed,"Correct, no change",4,8,0,1414.0,1830.0,1414,0,99,1500.0,1500.0
153,7,2126,2424,36.47,18.85,1060,427,-1,1,50,53,0,50,53,3,1,1,1,False,2250,956,804,True,False,1,750,723,2442,18926,90,53,50,Left,-0.6984295979999999,-0.778392392,-1.311771975,-1.652493671,-0.54764869,0.354474742,,Fixed,Incorrect to correct,4,10,0,804.0,2442.0,804,2839,99,750.0,2250.0
154,7,1203,1326,56.3,63.62,933,1512,1,1,50,50,1,46,50,4,0,1,2,False,3500,918,2567,False,False,1,3500,592,3132,19085,159,46,46,Right,0.434444179,0.599104149,0.8208255309999999,0.938120886,0.011777391000000002,-0.579216594,,Fixed,"Correct, no change",3,15,1,3132.0,2567.0,0,3198,99,3500.0,3500.0
155,7,1285,1950,38.47,27.5,1344,907,1,-1,50,46,2,50,46,4,0,1,1,True,1750,936,5196,True,False,1,5250,751,1300,19190,105,46,50,Left,-0.584171022,-0.639461828,-0.8997333679999999,-1.151961709,0.011777391000000002,-0.49626676799999997,,Fixed,Correct to incorrect,3,12,0,5196.0,1300.0,0,1657,99,5250.0,1750.0
156,7,3537,1689,58.45,66.63,366,1805,-1,-1,50,50,0,50,53,3,1,1,4,False,3500,556,3344,True,True,1,3500,830,2900,19226,36,53,53,Left,0.557272148,0.748454505,0.9642054390000001,1.112294435,-0.54764869,1.7818187019999998,,Fixed,"Incorrect, no change",3,12,0,3344.0,2900.0,3766,2818,99,3500.0,3500.0
157,7,1623,1839,25.12,44.43,845,320,1,-1,50,46,1,46,50,4,0,1,2,False,1500,900,1014,False,True,1,1500,738,1422,19315,89,46,50,Right,-1.346847015,-1.5668233409999999,-0.09328092800000001,-0.172307824,0.011777391000000002,-0.154351631,,Fixed,Correct to incorrect,3,6,1,1422.0,1014.0,1080,1422,99,1500.0,1500.0
158,7,3481,967,50.57,30.38,645,287,-1,-1,46,46,1,50,46,4,1,1,1,True,750,862,2108,False,False,1,2250,584,1062,19373,58,50,50,Left,0.10709336,0.201068083,-0.762545948,-0.985310606,0.011777391000000002,1.72517004,,Fixed,"Incorrect, no change",5,8,0,2108.0,1062.0,2108,1129,99,2250.0,750.0
159,7,1414,2290,43.52,37.3,320,601,-1,1,45,50,0,45,50,5,1,1,1,False,3750,632,1595,True,False,1,1250,838,2084,19469,96,50,45,Left,-0.295668119,-0.288662154,-0.432915062,-0.584885036,0.571203472,-0.36577252899999996,,Fixed,Incorrect to correct,3,11,0,1595.0,2084.0,0,2664,99,1250.0,3750.0
160,7,959,1875,75.08,62.97,612,486,1,1,50,50,1,44,50,6,0,1,3,False,5250,922,1572,False,False,1,1750,430,3682,19637,168,44,44,Right,1.507332205,1.903662143,0.789863092,0.900508657,1.130629553,-0.826042906,,Fixed,"Correct, no change",3,12,1,3682.0,1572.0,1572,3919,99,1750.0,5250.0
161,7,2164,1735,35.48,12.33,349,1192,-1,1,50,56,1,50,56,6,1,1,1,False,3500,578,2851,True,False,1,3500,854,3204,19725,88,56,50,Right,-0.754987593,-0.847163021,-1.622349052,-2.029773253,1.130629553,0.392914905,,Fixed,Incorrect to correct,5,20,1,3204.0,2851.0,2932,3271,99,3500.0,3500.0
162,7,1555,1332,42.0,58.25,741,678,1,1,50,50,1,50,43,7,0,1,2,True,2250,958,1433,True,True,1,750,556,2138,19875,150,43,43,Right,-0.382504636,-0.39424938299999995,0.565028153,0.627386015,1.690055635,-0.223139292,,Fixed,"Correct, no change",2,8,1,2138.0,1433.0,0,2138,99,750.0,2250.0
163,7,1958,1597,62.43,60.82,373,889,1,1,57,57,2,50,57,7,0,1,5,False,3750,764,1478,False,False,1,1250,854,2578,20036,161,50,50,Right,0.7846467140000001,1.024926327,0.687448872,0.776098979,1.690055635,0.18452875600000002,,Fixed,"Correct, no change",2,6,1,2578.0,1478.0,1818,2645,99,1250.0,3750.0
164,7,4833,2012,56.45,58.2,977,746,1,1,56,56,1,50,56,6,0,1,4,False,750,862,1448,False,False,1,2250,622,1837,20193,157,50,50,Left,0.443013573,0.6095239410000001,0.562646427,0.624492766,1.130629553,3.0928305889999996,,Fixed,"Correct, no change",4,5,0,1448.0,1837.0,1448,2264,99,2250.0,750.0
165,7,885,1491,57.92,66.48,1026,772,1,1,56,56,2,56,50,6,0,1,4,True,1750,426,4610,True,True,1,5250,830,1763,20354,161,50,50,Left,0.526993626,0.711637905,0.957060261,1.10361469,1.130629553,-0.900900067,,Fixed,"Correct, no change",4,16,0,4610.0,1763.0,4677,0,99,5250.0,1750.0
166,7,1312,735,37.87,49.55,702,3385,1,1,55,55,1,50,55,5,0,1,3,False,2500,698,1980,False,False,1,2500,786,1632,20496,142,50,50,Left,-0.618448595,-0.6811409970000001,0.15060782,0.123960805,0.571203472,-0.46895402,,Fixed,"Correct, no change",6,8,0,1980.0,1632.0,1980,1698,99,2500.0,2500.0
167,8,1025,1695,30.68,59.3,562,1230,1,1,50,50,2,50,45,5,0,1,1,True,2500,940,1172,True,True,1,2500,672,2148,20640,144,45,45,Right,-1.029208175,-1.180596374,0.6150444,0.68814423,0.571203472,-0.759278412,,Fixed,"Correct, no change",2,7,1,2148.0,1172.0,1595,2148,99,2500.0,2500.0
168,8,2051,1497,55.35,52.18,1252,1759,1,-1,54,50,1,54,50,4,0,1,2,True,5250,538,2184,True,False,1,1750,848,1940,20740,100,50,54,Left,0.380171356,0.533112131,0.27588661,0.276145667,0.011777391000000002,0.278605998,,Fixed,Correct to incorrect,2,5,0,2184.0,1940.0,2184,2006,99,1750.0,5250.0
169,8,1350,1978,24.72,21.8,640,370,-1,-1,50,50,1,54,50,4,1,1,4,True,1750,726,4326,False,False,1,5250,862,1704,20816,76,54,54,Left,-1.36969873,-1.594609454,-1.171250138,-1.481792019,0.011777391000000002,-0.43051385700000006,,Fixed,"Incorrect, no change",4,15,0,4326.0,1704.0,4326,1771,99,5250.0,1750.0
170,8,860,1627,29.43,26.17,384,599,1,-1,50,45,1,45,50,5,0,1,5,False,2500,1382,1927,False,True,1,2500,538,1874,20916,100,45,50,Right,-1.100619784,-1.267427976,-0.963087281,-1.228922115,0.571203472,-0.9261896479999999,,Fixed,Correct to incorrect,4,5,1,1874.0,1927.0,0,1874,99,2500.0,2500.0
171,8,1075,2084,49.85,23.22,1572,1690,-1,-1,50,50,1,50,55,5,1,1,1,False,750,620,2008,True,True,1,2250,858,1595,20979,63,55,55,Left,0.065960273,0.15105308,-1.103609118,-1.3996237669999998,0.571203472,-0.70869925,,Fixed,"Incorrect, no change",3,7,0,2008.0,1595.0,0,2004,99,2250.0,750.0
172,8,1718,1244,52.87,49.37,297,913,-1,1,44,50,0,50,44,6,1,1,1,True,1500,918,1168,False,True,1,1500,732,1592,21076,97,50,44,Right,0.238490722,0.36083823200000004,0.142033606,0.11354511099999999,1.130629553,-0.058251223,,Fixed,Incorrect to correct,3,4,1,1592.0,1168.0,1463,0,99,1500.0,1500.0
173,8,1030,1011,81.0,89.38,635,851,1,1,57,57,1,57,50,7,0,1,1,True,1250,426,1036,True,True,1,3750,808,1176,21260,184,50,50,Right,1.845537589,2.314896612,2.047890792,2.4287224259999998,1.690055635,-0.754220496,,Fixed,"Correct, no change",3,4,1,1176.0,1036.0,1102,1176,99,3750.0,1250.0
174,8,2352,1218,68.33,80.93,1243,1026,1,1,50,50,2,50,43,7,0,2,2,True,5250,902,1630,True,True,1,1750,554,2803,21434,174,43,43,Left,1.121709512,1.43477149,1.645379089,1.939763458,1.690055635,0.583092555,,Fixed,"Correct, no change",3,10,0,1630.0,2803.0,1696,2970,99,1750.0,5250.0
175,8,2268,1889,58.02,62.98,830,316,1,1,56,56,1,50,56,6,0,1,2,False,2250,960,1356,False,False,1,750,496,1552,21594,160,50,50,Left,0.532706555,0.718584434,0.790339437,0.9010873070000001,1.130629553,0.498119563,,Fixed,"Correct, no change",3,6,0,1356.0,1552.0,1356,1619,99,750.0,2250.0
176,8,1416,1351,34.27,57.5,692,313,1,1,56,56,2,50,56,6,0,1,1,False,2250,952,762,False,False,1,750,708,586,21739,145,50,50,Left,-0.8241140309999999,-0.931216012,0.5293022620000001,0.58398729,1.130629553,-0.363749363,,Fixed,"Correct, no change",3,3,0,762.0,586.0,762,652,99,750.0,2250.0
177,8,2256,1346,58.03,90.25,1006,869,1,1,55,55,1,55,50,5,0,1,5,True,5250,954,2800,True,True,1,1750,712,3098,21913,174,50,50,Right,0.533277847,0.7192790859999999,2.089332825,2.479064947,0.571203472,0.485980564,,Fixed,"Correct, no change",2,10,1,3098.0,2800.0,3073,3098,99,1750.0,5250.0
178,8,1823,1582,15.4,15.9,655,1587,-1,1,45,50,1,50,45,5,1,1,3,True,2500,928,3036,False,True,1,2500,752,1235,22012,99,50,45,Left,-1.9021436930000002,-2.242025882,-1.452293812,-1.8231953230000002,0.571203472,0.047965018,,Fixed,Incorrect to correct,3,9,0,3036.0,1235.0,3103,1668,99,2500.0,2500.0
179,8,1868,1450,33.52,25.07,702,792,-1,1,50,56,0,50,56,6,1,1,4,False,2500,720,2263,True,False,1,2500,712,1894,22107,95,56,50,Right,-0.8669609970000001,-0.9833149729999999,-1.0154852540000001,-1.292573578,1.130629553,0.093486264,,Fixed,Incorrect to correct,3,9,1,1894.0,2263.0,0,1960,99,2500.0,2500.0
180,8,826,798,65.33,75.42,860,761,1,1,57,57,1,57,50,7,0,1,2,True,5250,486,1762,True,True,1,1750,842,2067,22276,169,50,50,Left,0.950321649,1.226375644,1.382912879,1.6209274919999999,1.690055635,-0.960583478,,Fixed,"Correct, no change",3,9,0,1762.0,2067.0,1829,0,99,1750.0,5250.0
181,8,4285,1349,17.8,20.2,675,1261,1,1,57,57,2,50,57,7,0,1,3,False,3500,776,2330,False,False,1,3500,748,3118,22394,118,50,50,Right,-1.7650334019999998,-2.075309205,-1.247465372,-1.5743759659999998,1.690055635,2.53848297,,Fixed,"Correct, no change",2,15,1,3118.0,2330.0,2330,3476,99,3500.0,3500.0
182,8,995,1234,82.93,79.47,941,603,1,1,56,56,1,56,50,6,0,1,1,True,1500,460,962,True,True,1,1500,880,1502,22574,180,50,50,Right,1.9557971140000001,2.448964606,1.575832689,1.8552806069999999,1.130629553,-0.7896259090000001,,Fixed,"Correct, no change",3,7,1,1502.0,962.0,1029,1502,99,1500.0,1500.0
183,8,1419,1559,90.6,89.15,907,1180,1,1,56,56,2,56,50,6,0,1,1,True,3750,614,948,True,True,1,1250,832,3558,22763,189,50,50,Right,2.3939787519999998,2.981763318,2.036934852,2.415413484,1.130629553,-0.36071461299999996,,Fixed,"Correct, no change",3,10,1,3558.0,948.0,1361,3558,99,1250.0,3750.0
184,8,1044,867,66.2,26.18,734,747,-1,-1,45,45,0,45,50,5,1,1,3,False,750,680,1321,True,True,1,2250,664,910,22815,52,50,50,Right,1.000024129,1.28681044,-0.9626109359999999,-1.228343465,0.571203472,-0.74005833,,Fixed,"Incorrect, no change",3,4,1,910.0,1321.0,0,910,99,2250.0,750.0
185,8,1007,1255,64.82,85.93,937,2710,1,1,50,50,1,50,44,6,0,1,1,True,1750,556,1988,True,True,1,5250,912,1690,22989,174,44,44,Right,0.921185712,1.1909483509999998,1.883551695,2.229088291,1.130629553,-0.7774869109999999,,Fixed,"Correct, no change",2,7,1,1690.0,1988.0,2055,1978,99,5250.0,1750.0
186,8,1151,1742,62.83,26.55,1197,863,1,1,50,50,2,50,44,6,0,1,1,True,3750,600,784,True,True,1,1250,860,3572,23133,144,44,44,Right,0.807498429,1.05271244,-0.9449861629999999,-1.206933428,1.130629553,-0.631818923,,Fixed,"Correct, no change",4,11,1,3572.0,784.0,1327,3572,99,1250.0,3750.0
187,8,2420,1954,8.92,17.28,879,818,1,1,55,55,1,50,55,5,0,1,3,False,3750,680,1474,False,False,1,1250,836,2498,23245,112,50,50,Left,-2.272341478,-2.692160908,-1.386558173,-1.743341669,0.571203472,0.651880216,,Fixed,"Correct, no change",3,8,1,2498.0,1474.0,1474,2565,99,1250.0,3750.0
188,9,1621,1432,25.08,28.5,412,737,1,-1,55,50,2,50,55,5,0,1,3,False,2250,876,874,False,True,1,750,520,2062,23342,97,50,55,Left,-1.3491321859999998,-1.569601953,-0.852098847,-1.094096743,0.571203472,-0.15637479699999998,,Fixed,Correct to incorrect,2,6,0,874.0,2062.0,1191,0,99,750.0,2250.0
189,0,1511,1712,76.58,98.12,767,684,1,1,54,54,1,50,54,4,0,1,1,False,2250,912,638,False,False,2,750,794,1065,377,187,50,50,Left,0.003607231,0.266444472,0.52298006,0.832319804,1.242430933,-0.17770050199999998,,Fixed,"Correct, no change",0,2,0,638.0,1065.0,638,1378,99,750.0,2250.0
190,0,1453,2012,94.78,92.45,671,860,1,1,54,54,2,50,54,4,0,1,1,False,3500,934,3048,False,False,2,3500,747,2091,570,193,50,50,Left,0.703446627,1.027888321,0.236455969,0.56950869,1.242430933,-0.32006350100000003,,Fixed,"Correct, no change",2,7,0,3048.0,2091.0,3048,2350,99,3500.0,3500.0
191,0,1655,2661,94.77,95.73,873,705,1,1,53,53,1,50,53,3,0,1,1,False,5250,761,1858,False,False,2,1750,890,1869,764,194,50,50,Left,0.7030621,1.027469945,0.402205355,0.7215405159999999,0.40677454,0.17575245899999997,,Fixed,"Correct, no change",3,5,0,1858.0,1869.0,0,2205,99,1750.0,5250.0
192,0,2484,1266,65.5,35.32,473,1459,1,-1,50,47,2,50,47,3,0,2,2,True,1750,916,4036,True,False,2,5250,958,1642,878,114,47,50,Right,-0.422448841,-0.19711584899999998,-2.650514277,-2.078533454,0.40677454,2.210561523,,Fixed,Correct to incorrect,2,11,1,1642.0,4036.0,0,1709,99,5250.0,1750.0
193,0,1718,1124,95.77,86.33,641,636,1,1,52,52,2,52,50,2,0,1,1,True,1500,782,1386,True,True,2,1500,898,1722,1068,190,50,50,Left,0.7415148140000001,1.069307519,-0.072808129,0.285839551,-0.428881852,0.33038813,,Fixed,"Correct, no change",2,3,0,1386.0,1722.0,1452,1916,99,1500.0,1500.0
194,0,1631,1137,96.35,96.33,552,750,1,1,50,50,1,49,50,1,0,1,1,False,2500,940,2580,False,False,2,2500,788,1532,1264,196,49,49,Left,0.763817388,1.093573312,0.43252536399999997,0.749351216,-1.264538245,0.11684363199999999,,Fixed,"Correct, no change",1,5,0,2580.0,1532.0,0,1599,99,2500.0,2500.0
195,0,1758,1374,96.63,94.27,824,2164,-1,-1,49,49,1,50,49,1,1,1,2,True,3750,770,1120,False,False,2,1250,812,2292,1267,3,50,50,Left,0.774584148,1.105287833,0.328426665,0.653867813,-1.264538245,0.428569508,,Fixed,"Incorrect, no change",3,5,0,1120.0,2292.0,1120,0,99,1250.0,3750.0
196,0,1863,1487,3.72,53.8,963,880,-1,1,50,52,0,50,52,2,1,1,1,False,3750,796,1030,True,False,2,1250,778,3346,1391,124,52,50,Right,-2.7980575169999997,-2.781841177,-1.7166579819999999,-1.2219638959999999,-0.428881852,0.6862956259999999,,Fixed,Incorrect to correct,2,5,1,3346.0,1030.0,1286,3413,99,1250.0,3750.0
197,0,1615,1474,91.82,97.12,732,1239,1,1,50,50,1,50,47,3,0,1,1,True,1250,804,3175,True,True,2,3750,888,1190,1584,193,47,47,Right,0.589626593,0.9040491009999999,0.47244671,0.7859686379999999,0.40677454,0.077571081,,Fixed,"Correct, no change",1,7,1,1190.0,3175.0,3471,1190,99,3750.0,1250.0
198,0,2466,1564,38.0,96.18,894,2865,-1,1,50,53,1,53,50,3,1,1,1,True,750,962,2010,False,True,2,2250,713,676,1713,129,53,50,Left,-1.479898479,-1.347649136,0.42494536200000005,0.7423985409999999,0.40677454,2.166379903,,Fixed,Incorrect to correct,1,5,0,2010.0,676.0,2077,898,99,2250.0,750.0
199,0,1576,1184,98.43,97.87,1087,1539,1,1,54,54,1,50,54,4,0,1,2,False,2250,896,1356,False,False,2,750,743,1768,1910,197,50,50,Right,0.8437990329999999,1.180595466,0.510346722,0.820732013,1.242430933,-0.018155763000000002,,Fixed,"Correct, no change",1,5,1,1768.0,1356.0,0,1835,99,750.0,2250.0
200,0,1977,2563,55.05,97.92,910,897,-1,1,46,50,1,46,50,4,1,1,1,False,1500,750,1156,True,False,2,1500,940,2006,2030,120,50,46,Left,-0.824279703,-0.634318498,0.51287339,0.823049571,1.242430933,0.9661125540000001,,Fixed,Incorrect to correct,2,6,0,1156.0,2006.0,1156,2283,99,1500.0,1500.0
201,0,2897,1960,5.78,95.57,776,2903,1,1,50,50,1,50,45,5,0,1,1,True,750,1062,2005,True,True,2,2250,643,1171,2179,149,45,45,Left,-2.718844926,-2.6956557739999996,0.394120019,0.71412433,2.078087326,3.224284253,,Fixed,"Correct, no change",2,4,0,2005.0,1171.0,0,1474,99,2250.0,750.0
202,0,1575,1412,81.97,93.53,1206,4176,-1,1,45,50,1,50,45,5,1,1,2,True,2500,886,2223,False,True,2,2500,746,2346,2284,105,50,45,Right,0.21086736,0.49194899700000005,0.291031986,0.61956795,2.078087326,-0.020610297,,Fixed,Incorrect to correct,2,8,1,2346.0,2223.0,0,2346,99,2500.0,2500.0
203,0,1747,1971,91.03,96.23,3494,1117,1,1,56,56,2,50,56,6,0,1,1,False,2500,816,2229,False,False,2,2500,736,2292,2477,193,50,50,Right,0.559248949,0.870997418,0.427472029,0.7447161,2.9137437189999997,0.401569629,,Fixed,"Correct, no change",3,1,1,2292.0,2229.0,2472,2359,99,2500.0,2500.0
204,0,1699,1507,94.95,96.08,533,962,1,1,55,55,1,50,55,5,0,1,1,False,3500,902,3422,False,False,2,3500,690,2965,2672,195,50,50,Left,0.7099835879999999,1.0350007079999999,0.41989202700000006,0.737763425,2.078087326,0.283751975,,Fixed,"Correct, no change",2,4,0,3422.0,2965.0,3422,3221,99,3500.0,3500.0
205,0,1770,1596,94.95,96.47,736,693,1,1,50,50,2,45,50,5,0,1,2,False,1750,932,5150,False,False,2,5250,765,1454,2867,195,45,45,Left,0.7099835879999999,1.0350007079999999,0.43960003299999995,0.75584038,2.078087326,0.458023922,,Fixed,"Correct, no change",2,7,0,5150.0,1454.0,5150,0,99,5250.0,1750.0
206,0,1516,1307,95.3,93.58,918,910,-1,-1,46,46,0,50,46,4,1,1,1,True,2250,900,594,False,False,2,750,762,2442,2872,5,50,50,Left,0.723442038,1.0496438590000001,0.293558654,0.621885508,1.242430933,-0.16542783,,Fixed,"Incorrect, no change",2,3,0,594.0,2442.0,594,2753,99,750.0,2250.0
207,0,1709,1768,98.22,96.87,569,564,1,1,50,50,1,45,50,5,0,1,1,False,5250,980,1360,False,False,2,1750,664,4620,3069,197,45,45,Right,0.835723964,1.171809576,0.45981337299999997,0.7743808459999999,2.078087326,0.30829732,,Fixed,"Correct, no change",3,10,1,4620.0,1360.0,1574,4686,99,1750.0,5250.0
208,0,1407,1524,34.68,96.18,878,835,1,1,55,55,2,55,50,5,0,1,1,True,5250,842,1113,True,True,2,1750,749,4556,3234,165,50,50,Right,-1.607561489,-1.4865498819999998,0.42494536200000005,0.7423985409999999,2.078087326,-0.43297208600000003,,Fixed,"Correct, no change",3,8,1,4556.0,1113.0,1359,4556,99,1750.0,5250.0
209,1,1857,1925,97.17,97.58,795,786,1,1,54,54,1,50,54,4,0,1,1,False,1250,918,3466,False,False,2,3750,760,969,3430,196,50,50,Left,0.795348614,1.127880123,0.495692051,0.807290175,1.242430933,0.6715684190000001,,Fixed,"Correct, no change",2,4,0,3466.0,969.0,3466,1304,99,3750.0,1250.0
210,1,1631,1965,94.7,96.3,672,727,1,1,54,54,2,50,54,4,0,1,1,False,2250,928,760,False,False,2,750,795,2519,3625,195,50,50,Left,0.70037041,1.024541315,0.431009364,0.7479606809999999,1.242430933,0.11684363199999999,,Fixed,"Correct, no change",1,3,0,760.0,2519.0,760,2657,99,750.0,2250.0
211,1,1991,1670,93.73,94.45,928,623,1,1,53,53,1,53,50,3,0,1,2,True,1500,790,1442,True,True,2,1500,858,1887,3818,193,50,50,Left,0.663071277,0.983958868,0.33752266799999997,0.662211023,0.40677454,1.000476036,,Fixed,"Correct, no change",2,5,0,1442.0,1887.0,1508,0,99,1500.0,1500.0
212,1,2812,1205,94.73,93.7,894,451,1,1,50,50,2,47,50,3,0,1,1,False,3750,948,802,False,False,2,1250,772,3414,4011,193,47,47,Right,0.701523991,1.025796442,0.299622656,0.627447648,0.40677454,3.015648824,,Fixed,"Correct, no change",0,2,1,3414.0,802.0,1058,3481,99,1250.0,3750.0
213,1,1571,2370,49.28,26.42,451,1021,1,-1,52,50,1,50,52,2,0,1,1,False,2500,928,1963,False,True,2,2500,786,2696,4121,110,50,52,Right,-1.046151864,-0.8757213009999999,-3.100261086,-2.491058836,-0.428881852,-0.030428435,,Fixed,Correct to incorrect,1,8,1,2696.0,1963.0,2342,0,99,2500.0,2500.0
214,1,1515,1774,93.45,89.9,637,862,1,1,50,50,2,50,48,2,0,1,1,True,1500,748,2152,True,True,2,1500,866,1486,4311,190,48,48,Right,0.652304517,0.9722443470000001,0.10759592800000001,0.451313216,-0.428881852,-0.167882365,,Fixed,"Correct, no change",3,4,1,1486.0,2152.0,2501,0,99,1500.0,1500.0
215,1,1684,1253,98.85,96.68,2703,698,1,1,50,50,1,49,50,1,0,1,1,False,750,791,2582,False,False,2,2250,914,832,4508,197,49,49,Right,0.859949173,1.198167247,0.450212037,0.765574125,-1.264538245,0.246933958,,Fixed,"Correct, no change",2,4,1,832.0,2582.0,2858,0,99,2250.0,750.0
216,1,1438,1540,64.02,96.38,357,1037,-1,-1,50,50,1,51,50,1,1,1,1,True,3500,746,3456,False,False,2,3500,862,3268,4526,18,51,51,Left,-0.47935885799999994,-0.259035458,0.43505203200000003,0.751668775,-1.264538245,-0.35688151799999995,,Fixed,"Incorrect, no change",3,3,0,3456.0,3268.0,3456,3550,99,3500.0,3500.0
217,1,1887,1691,97.47,97.23,972,1022,1,1,52,52,1,50,52,2,0,1,1,False,1750,940,4866,False,False,2,5250,763,1447,4722,196,50,50,Left,0.8068844279999999,1.140431395,0.478005379,0.791067266,-0.428881852,0.7452044529999999,,Fixed,"Correct, no change",1,7,0,4866.0,1447.0,4866,1739,99,5250.0,1750.0
218,1,1522,1645,61.07,69.78,2386,1043,1,-1,52,50,2,52,50,2,0,1,1,True,3750,778,703,True,False,2,1250,936,3356,4817,95,50,52,Right,-0.592794365,-0.382456302,-0.90913506,-0.481272255,-0.428881852,-0.150700623,,Fixed,Correct to incorrect,1,8,1,3356.0,703.0,1128,3363,99,1250.0,3750.0
219,1,1517,1820,95.42,95.2,853,822,-1,-1,49,49,0,50,49,1,1,1,1,True,1250,794,3538,False,False,2,3750,854,1007,4821,4,50,50,Left,0.7280563640000001,1.054664368,0.37542268,0.6969743979999999,-1.264538245,-0.162973296,,Fixed,"Incorrect, no change",2,2,0,3538.0,1007.0,3538,1369,99,3750.0,1250.0
220,1,1510,1433,66.78,90.33,336,662,1,1,50,50,1,48,50,2,0,1,2,False,2250,1004,1392,False,False,2,750,719,2202,4999,178,48,48,Right,-0.37322936700000003,-0.14356375400000002,0.12932526800000002,0.471244217,-0.428881852,-0.180155037,,Fixed,"Correct, no change",1,3,1,2202.0,1392.0,0,2269,99,750.0,2250.0
221,1,1852,1867,95.32,56.83,737,2967,1,1,50,50,2,50,48,2,0,1,2,True,3500,721,3096,True,True,2,3500,978,3143,5174,175,48,48,Left,0.724211093,1.050480611,-1.563541934,-1.081519862,-0.428881852,0.659295747,,Fixed,"Correct, no change",3,12,0,3096.0,3143.0,3162,0,99,3500.0,3500.0
222,1,1459,1758,31.73,94.52,1265,995,-1,-1,49,49,0,50,49,1,1,1,1,True,2500,767,2434,False,False,2,2500,888,1390,5210,36,50,50,Left,-1.720996996,-1.609970726,0.34106000200000003,0.665455605,-1.264538245,-0.305336294,,Fixed,"Incorrect, no change",2,6,0,2434.0,1390.0,2434,1577,99,2500.0,2500.0
223,1,1508,1459,30.13,95.35,768,791,1,-1,52,50,1,52,50,2,0,1,1,True,1500,797,1434,True,False,2,1500,972,2200,5277,67,50,52,Left,-1.782521338,-1.676910845,0.38300268200000004,0.703927073,-0.428881852,-0.185064106,,Fixed,Correct to incorrect,1,3,0,1434.0,2200.0,1434,0,99,1500.0,1500.0
224,1,1372,1519,94.03,96.58,714,1041,-1,-1,50,50,1,50,52,2,1,1,1,False,5250,780,1195,True,True,2,1750,944,5356,5280,3,52,52,Right,0.674607092,0.99651014,0.445158702,0.7609390079999999,-0.428881852,-0.518880792,,Fixed,"Incorrect, no change",1,8,1,5356.0,1195.0,1557,0,99,1750.0,5250.0
225,1,1713,1976,89.5,95.98,769,666,1,1,53,53,1,50,53,3,0,1,1,False,5250,950,1430,False,False,2,1750,742,4648,5471,191,50,50,Left,0.500416297,0.80698593,0.414838692,0.733128308,0.40677454,0.318115458,,Fixed,"Correct, no change",1,9,0,1430.0,4648.0,1430,4965,99,1750.0,5250.0
226,1,1715,1755,90.38,94.13,933,2850,1,1,50,50,2,47,50,3,0,1,1,False,1250,872,2980,False,False,2,3750,748,887,5663,192,47,47,Left,0.534254685,0.843802995,0.32135199600000003,0.64737865,0.40677454,0.323024527,,Fixed,"Correct, no change",2,4,0,2980.0,887.0,2980,1375,99,3750.0,1250.0
227,1,1654,1131,75.33,55.8,512,432,-1,-1,50,50,1,52,50,2,1,1,1,True,5250,1082,1347,False,False,2,1750,605,5044,5697,34,52,52,Right,-0.044458662,0.214147505,-1.615591283,-1.129261563,-0.428881852,0.173297925,,Fixed,"Incorrect, no change",2,4,1,5044.0,1347.0,0,5110,99,1750.0,5250.0
228,1,1479,1411,93.58,92.02,1060,533,1,1,50,50,1,50,47,3,0,1,1,True,2250,1024,1281,True,True,2,750,638,1970,5889,192,47,47,Right,0.65730337,0.9776832320000001,0.21472662899999997,0.549577689,0.40677454,-0.256245605,,Fixed,"Correct, no change",3,5,1,1970.0,1281.0,1598,1970,99,750.0,2250.0
229,1,1798,1514,91.9,65.38,657,3792,1,-1,53,50,2,53,50,3,0,1,1,True,3500,918,3003,True,False,2,3500,779,3016,6001,112,50,53,Right,0.592702811,0.9073961070000001,-1.131481797,-0.685217388,0.40677454,0.526750886,,Fixed,Correct to incorrect,1,9,1,3016.0,3003.0,3238,3082,99,3500.0,3500.0
230,2,1212,1449,35.02,45.28,574,3692,-1,-1,50,50,0,50,52,2,1,1,2,False,3750,1010,1114,True,True,2,1250,722,3308,6060,59,52,52,Right,-1.594487566,-1.4723251069999999,-2.147202118,-1.616875835,-0.428881852,-0.911606305,,Fixed,"Incorrect, no change",1,8,1,3308.0,1114.0,0,3308,99,1250.0,3750.0
231,2,1746,1863,95.4,96.75,826,1207,1,1,53,53,2,50,53,3,0,1,1,False,750,808,2521,False,False,2,2250,834,580,6255,195,50,50,Right,0.72728731,1.053827617,0.453749371,0.7688187059999999,0.40677454,0.399115095,,Fixed,"Correct, no change",1,6,1,580.0,2521.0,2778,646,99,2250.0,750.0
232,2,1249,1439,61.45,81.1,473,520,-1,-1,48,48,0,50,48,2,1,1,1,True,1500,884,1518,False,False,2,1500,782,1540,6283,28,50,50,Left,-0.578182333,-0.366558024,-0.337097546,0.04342295,-0.428881852,-0.82078853,,Fixed,"Incorrect, no change",2,1,0,1518.0,1540.0,1518,1894,99,1500.0,1500.0
233,2,1678,1516,13.5,97.68,649,1066,-1,1,47,50,0,47,50,3,1,1,1,False,3750,1010,1513,True,False,2,1250,671,2415,6424,141,50,47,Left,-2.421989974,-2.372669702,0.5007453860000001,0.811925291,0.40677454,0.232206752,,Fixed,Incorrect to correct,2,5,0,1513.0,2415.0,0,2741,99,1250.0,3750.0
234,2,1934,1430,98.45,97.05,919,3347,1,1,50,50,1,50,46,4,0,1,2,True,750,958,2175,True,True,2,2250,715,854,6621,197,46,46,Right,0.8445680879999999,1.1814322179999999,0.468909376,0.782724056,1.242430933,0.860567572,,Fixed,"Correct, no change",2,3,1,854.0,2175.0,2522,854,99,2250.0,750.0
235,2,1977,1752,98.13,98.17,1020,1059,1,1,53,53,1,50,53,3,0,1,1,False,1250,902,3473,False,False,2,3750,743,976,6819,198,50,50,Right,0.8322632190000001,1.1680441940000001,0.525506727,0.834637363,0.40677454,0.9661125540000001,,Fixed,"Correct, no change",2,4,1,976.0,3473.0,3686,1042,99,3750.0,1250.0
236,2,1938,1889,63.9,98.55,709,1277,-1,-1,50,50,1,53,50,3,1,1,1,True,5250,705,1730,False,False,2,1750,942,3868,6837,18,53,53,Left,-0.483973184,-0.264055967,0.5447094,0.8522508059999999,0.40677454,0.87038571,,Fixed,"Incorrect, no change",3,8,0,1730.0,3868.0,1730,4149,99,1750.0,5250.0
237,2,1790,1962,19.82,98.72,471,799,1,1,54,54,1,54,50,4,0,1,1,True,1250,928,3444,True,True,2,3750,688,904,6995,158,50,50,Left,-2.178968821,-2.108256234,0.553300069,0.860130504,1.242430933,0.507114611,,Fixed,"Correct, no change",3,5,0,3444.0,904.0,3511,1174,99,3750.0,1250.0
238,2,1577,1987,96.75,97.58,742,633,1,1,54,54,2,54,50,4,0,1,1,True,1750,789,5194,True,True,2,5250,896,1269,7191,196,50,50,Left,0.7791984740000001,1.110308342,0.495692051,0.807290175,1.242430933,-0.015701228,,Fixed,"Correct, no change",2,8,0,5194.0,1269.0,5261,1666,99,5250.0,1750.0
239,2,1949,2291,99.02,98.78,1019,824,1,1,50,50,2,50,47,3,0,1,1,True,1250,938,3394,True,True,2,3750,758,883,7389,198,47,47,Left,0.866486135,1.205279635,0.55633207,0.8629115740000001,0.40677454,0.8973855890000001,,Fixed,"Correct, no change",1,8,0,3394.0,883.0,3461,952,99,3750.0,1250.0
240,2,1647,1337,98.3,97.93,850,752,1,1,50,50,1,48,50,2,0,1,1,False,5250,773,1768,False,False,2,1750,924,4814,7586,197,48,48,Left,0.838800181,1.175156582,0.513378723,0.8235130829999999,-0.428881852,0.156116184,,Fixed,"Correct, no change",2,5,0,1768.0,4814.0,1768,5151,99,1750.0,5250.0
241,2,2538,1447,14.38,96.1,450,3952,-1,1,48,50,1,48,50,2,1,1,2,False,1750,796,4567,True,False,2,5250,920,1670,7726,140,50,48,Right,-2.388151585,-2.335852637,0.42090269399999997,0.7386904479999999,-0.428881852,2.3431063830000003,,Fixed,Incorrect to correct,1,6,1,1670.0,4567.0,0,1736,99,5250.0,1750.0
242,2,1318,1503,37.07,80.17,613,343,-1,1,50,53,0,50,53,3,1,1,2,False,3750,793,1130,True,False,2,1250,894,3246,7847,121,53,50,Left,-1.5156595030000002,-1.38655808,-0.38409356100000003,0.000316365,0.40677454,-0.651425652,,Fixed,Incorrect to correct,2,6,0,1130.0,3246.0,1130,0,99,1250.0,3750.0
243,2,1528,1596,90.28,97.95,717,988,1,1,54,54,1,54,50,4,0,1,1,True,5250,914,1656,True,True,2,1750,764,4690,8040,193,50,50,Left,0.530409414,0.8396192370000001,0.51438939,0.824440106,1.242430933,-0.13597341699999999,,Fixed,"Correct, no change",2,3,0,1656.0,4690.0,1723,4944,99,1750.0,5250.0
244,2,1476,2835,47.0,97.1,817,960,1,1,50,50,2,50,46,4,0,1,1,True,1500,898,1634,True,True,2,1500,753,1309,8211,171,46,46,Left,-1.133824052,-0.97111097,0.47143604299999997,0.785041615,1.242430933,-0.263609208,,Fixed,"Correct, no change",1,5,0,1634.0,1309.0,0,1598,99,1500.0,1500.0
245,2,1403,1574,92.58,93.5,469,3090,1,1,53,53,1,53,50,3,0,1,1,True,1250,771,2729,True,True,2,3750,796,1166,8403,192,50,50,Right,0.618850656,0.935845658,0.289515986,0.618177415,0.40677454,-0.442790224,,Fixed,"Correct, no change",3,2,1,1166.0,2729.0,3019,1166,99,3750.0,1250.0
246,2,1420,1863,98.27,98.52,714,847,1,1,50,50,2,47,50,3,0,1,1,False,1500,779,1540,False,False,2,1500,880,2065,8601,198,47,47,Left,0.837646599,1.1739014540000001,0.543193399,0.850860271,0.40677454,-0.401063138,,Fixed,"Correct, no change",3,2,0,1540.0,2065.0,1540,2437,99,1500.0,1500.0
247,2,1832,1669,98.27,98.13,929,1541,1,1,50,50,1,48,50,2,0,1,1,False,750,914,2798,False,False,2,2250,779,624,8799,198,48,48,Right,0.837646599,1.1739014540000001,0.523485393,0.832783316,-0.428881852,0.610205058,,Fixed,"Correct, no change",2,4,1,624.0,2798.0,3044,691,99,2250.0,750.0
248,2,2116,3013,98.8,97.6,1094,757,1,1,50,50,2,50,48,2,0,1,1,True,1500,797,1849,True,True,2,1500,898,1764,8996,197,48,48,Right,0.858026538,1.196075369,0.496702718,0.808217198,-0.428881852,1.307292843,,Fixed,"Correct, no change",1,6,1,1764.0,1849.0,2204,0,99,1500.0,1500.0
249,2,1556,1660,80.5,96.48,646,778,-1,-1,50,50,0,51,50,1,1,1,1,True,3750,749,1208,False,False,2,1250,888,3399,9006,10,51,51,Left,0.15434187,0.430447763,0.440105367,0.756303891,-1.264538245,-0.067246452,,Fixed,"Incorrect, no change",3,2,0,1208.0,3399.0,1208,3729,99,1250.0,3750.0
250,2,1437,1681,96.98,94.37,600,2803,1,1,50,50,1,48,50,2,0,1,1,False,3500,974,3370,False,False,2,3500,667,3181,9201,195,48,48,Left,0.788042598,1.119930984,0.33348,0.65850293,-0.428881852,-0.359336052,,Fixed,"Correct, no change",2,4,0,3370.0,3181.0,3370,3439,99,3500.0,3500.0
251,3,1400,3134,62.43,98.0,454,957,-1,1,48,50,1,48,50,2,1,1,1,False,3500,938,3328,True,False,2,3500,718,2617,9318,117,50,48,Left,-0.540498673,-0.325557201,0.516916058,0.8267576640000001,-0.428881852,-0.450153827,,Fixed,Incorrect to correct,2,5,0,3328.0,2617.0,3328,0,99,3500.0,3500.0
252,3,1585,1470,86.02,25.03,948,402,1,1,53,53,1,53,50,3,0,1,1,True,3750,916,1005,True,True,2,1250,777,3674,9473,155,50,50,Right,0.36660085200000003,0.6613911720000001,-3.170502442,-2.555486958,0.40677454,0.0039350470000000005,,Fixed,"Correct, no change",0,3,1,3674.0,1005.0,1409,3674,99,1250.0,3750.0
253,3,1441,1481,95.55,97.83,820,1248,1,1,53,53,2,50,53,3,0,1,1,False,1750,886,5032,False,False,2,5250,730,1452,9668,195,50,50,Left,0.733055217,1.060103253,0.5083253879999999,0.818877966,0.40677454,-0.349517914,,Fixed,"Correct, no change",3,3,0,5032.0,1452.0,5032,1785,99,5250.0,1750.0
254,3,1876,1685,5.72,95.85,566,970,-1,1,50,52,0,52,50,2,1,1,2,True,2500,940,2476,False,True,2,2500,756,2464,9812,144,52,50,Right,-2.721152089,-2.698166028,0.40826935700000005,0.7271026559999999,-0.428881852,0.718204574,,Fixed,Incorrect to correct,0,4,1,2464.0,2476.0,0,2464,99,2500.0,2500.0
255,3,1470,1320,37.47,96.03,842,1728,1,1,50,50,2,47,50,3,0,1,1,False,750,796,2541,False,False,2,2250,934,688,9978,166,47,47,Right,-1.5002784169999999,-1.369823051,0.41736536,0.735445866,0.40677454,-0.278336415,,Fixed,"Correct, no change",1,5,1,688.0,2541.0,2784,754,99,2250.0,750.0
256,3,2249,1870,37.32,96.2,1099,890,1,1,50,50,2,50,48,2,0,1,1,True,1250,780,3539,True,True,2,3750,948,1200,10144,166,48,48,Right,-1.5060463240000002,-1.3760986869999998,0.42595602899999996,0.743325565,-0.428881852,1.633745926,,Fixed,"Correct, no change",1,2,1,1200.0,3539.0,3895,1200,99,3750.0,1250.0
257,3,1652,1748,97.07,98.8,652,1439,-1,-1,49,49,0,50,49,1,1,1,1,True,1250,900,3142,False,False,2,3750,770,1310,10145,1,50,50,Right,0.791503342,1.123696365,0.557342737,0.863838598,-1.264538245,0.168388856,,Fixed,"Incorrect, no change",1,7,1,1310.0,3142.0,3482,1096,99,3750.0,1250.0
258,3,1370,1599,97.92,98.6,1018,1538,1,1,52,52,1,50,52,2,0,1,1,False,750,793,2764,False,False,2,2250,888,696,10342,197,50,50,Right,0.824188149,1.1592583029999999,0.547236067,0.854568364,-0.428881852,-0.523789861,,Fixed,"Correct, no change",1,1,1,696.0,2764.0,3120,763,99,2250.0,750.0
259,3,1557,1344,98.33,98.48,857,677,1,1,50,50,2,50,48,2,0,1,1,True,2500,770,2283,True,True,2,2500,922,2752,10540,198,48,48,Right,0.839953762,1.1764117090000001,0.541172065,0.849006224,-0.428881852,-0.064791917,,Fixed,"Correct, no change",2,3,1,2752.0,2283.0,2618,0,99,2500.0,2500.0
260,3,1456,1613,98.07,98.15,1700,789,1,1,50,50,1,49,50,1,0,1,1,False,5250,916,1532,False,False,2,1750,779,4856,10738,198,49,49,Right,0.8299560559999999,1.16553394,0.52449606,0.833710339,-1.264538245,-0.312699897,,Fixed,"Correct, no change",0,7,1,4856.0,1532.0,1776,4922,99,1750.0,5250.0
261,3,1485,1696,84.4,98.02,386,784,1,1,51,51,2,50,51,1,0,1,1,False,2250,761,580,False,False,2,750,906,2775,10929,191,50,50,Left,0.304307455,0.593614302,0.517926725,0.827684688,-1.264538245,-0.241518398,,Fixed,"Correct, no change",3,3,0,580.0,2775.0,580,3071,99,750.0,2250.0
262,3,1350,1417,86.48,98.45,459,770,-1,-1,50,50,0,50,50,0,1,1,1,False,2250,794,726,True,False,2,750,950,2431,10935,6,50,50,Left,0.38428909999999994,0.6806364559999999,0.539656065,0.8476156890000001,-2.100194638,-0.57288055,,Fixed,"Incorrect, no change",1,3,0,726.0,2431.0,726,2679,99,750.0,2250.0
263,3,1050,1343,38.45,98.5,542,638,1,-1,50,49,1,50,49,1,0,1,1,True,2250,792,1222,True,False,2,750,898,2578,11004,69,49,50,Left,-1.462594757,-1.328822228,0.542182732,0.8499332479999999,-1.264538245,-1.309240886,,Fixed,Correct to incorrect,1,5,0,1222.0,2578.0,0,2901,99,750.0,2250.0
264,3,1335,1460,81.33,98.98,1110,1328,1,1,50,50,2,49,50,1,0,1,1,False,3750,918,792,False,False,2,1250,776,3552,11193,189,49,49,Right,0.186257623,0.465172949,0.56643874,0.872181808,-1.264538245,-0.609698567,,Fixed,"Correct, no change",1,3,1,3552.0,792.0,792,3619,99,1250.0,3750.0
265,3,1332,1481,98.23,94.08,821,663,-1,-1,50,50,0,50,50,0,1,1,1,False,2250,952,726,True,True,2,750,756,2473,11195,2,50,50,Left,0.836108491,1.172227951,0.318825328,0.6450610920000001,-2.100194638,-0.61706217,,Fixed,"Incorrect, no change",2,3,0,726.0,2473.0,793,2718,99,750.0,2250.0
266,3,1175,1247,97.52,98.83,750,806,1,1,50,50,1,49,50,1,0,1,1,False,2500,956,2234,False,False,2,2500,746,2368,11392,197,49,49,Right,0.808807064,1.142523274,0.558858738,0.8652291329999999,-1.264538245,-1.002424079,,Fixed,"Correct, no change",1,3,1,2368.0,2234.0,2492,2434,99,2500.0,2500.0
267,3,1375,1451,97.07,24.7,709,820,1,1,51,51,2,50,51,1,0,1,1,False,1750,762,4228,False,False,2,5250,924,1568,11552,160,50,50,Right,0.791503342,1.123696365,-3.187178447,-2.570782843,-1.264538245,-0.511517188,,Fixed,"Correct, no change",3,6,1,1568.0,4228.0,4460,1635,99,5250.0,1750.0
268,3,1396,1474,18.62,98.58,629,572,-1,-1,50,50,0,50,50,0,1,1,1,False,1750,964,3993,False,True,2,5250,701,2053,11592,40,50,50,Right,-2.225112077,-2.158461322,0.5462254,0.8536413409999999,-2.100194638,-0.459971965,,Fixed,"Incorrect, no change",3,7,1,2053.0,3993.0,4305,0,99,5250.0,1750.0
269,3,1674,1740,91.43,98.93,597,630,1,1,50,50,1,49,50,1,0,1,1,False,1500,807,1440,False,False,2,1500,890,2055,11786,194,49,49,Left,0.574630035,0.887732448,0.563912073,0.869864249,-1.264538245,0.22238861399999998,,Fixed,"Correct, no change",2,3,0,1440.0,2055.0,1440,2349,99,1500.0,1500.0
270,3,1349,1464,98.65,87.28,1864,566,1,1,51,51,2,51,50,1,0,1,1,True,3500,798,3217,True,True,2,3500,928,3162,11978,192,50,50,Right,0.852258631,1.1897997329999999,-0.024801447,0.32987315899999997,-1.264538245,-0.575335084,,Fixed,"Correct, no change",1,9,1,3162.0,3217.0,3540,3162,99,3500.0,3500.0
271,3,1890,1804,97.12,98.97,635,959,-1,-1,50,50,0,50,50,0,1,1,1,False,3500,938,3332,False,False,2,3500,774,2873,11979,1,50,50,Left,0.7934259779999999,1.125788244,0.565933406,0.871718296,-2.100194638,0.752568056,,Fixed,"Incorrect, no change",1,7,0,3332.0,2873.0,3332,3198,99,3500.0,3500.0
272,4,1223,1361,83.33,98.65,408,954,-1,1,49,50,0,49,50,1,1,1,1,False,1750,785,3821,True,False,2,5250,932,1746,12086,107,50,49,Right,0.26316305100000004,0.548848097,0.549762735,0.856885923,-1.264538245,-0.884606426,,Fixed,Incorrect to correct,1,2,1,1746.0,3821.0,4050,1813,99,5250.0,1750.0
273,4,1647,1445,83.22,98.55,438,1064,1,1,52,52,1,50,52,2,0,1,1,False,3500,952,3186,False,False,2,3500,789,2935,12276,190,50,50,Left,0.258933252,0.544245964,0.5447094,0.8522508059999999,-0.428881852,0.156116184,,Fixed,"Correct, no change",1,7,0,3186.0,2935.0,3186,3235,99,3500.0,3500.0
274,4,1350,1144,90.02,12.33,782,750,1,1,50,50,2,48,50,2,0,1,2,False,3500,802,3410,False,False,2,3500,602,3135,12427,151,48,48,Left,0.5204117079999999,0.8287414679999999,-3.812275978,-3.144146773,-0.428881852,-0.57288055,,Fixed,"Correct, no change",3,8,0,3410.0,3135.0,3410,0,99,3500.0,3500.0
275,4,1637,1551,47.38,98.65,919,770,1,1,50,50,1,49,50,1,0,1,2,False,750,894,2310,False,False,2,2250,782,1554,12599,172,49,49,Left,-1.11921202,-0.955212691,0.549762735,0.856885923,-1.264538245,0.131570839,,Fixed,"Correct, no change",1,1,0,2310.0,1554.0,2310,0,99,2250.0,750.0
276,4,1357,1634,94.88,98.72,394,674,-1,-1,49,49,1,50,49,1,1,1,3,True,2500,938,2034,False,False,2,2500,770,2548,12601,2,50,50,Left,0.7072918990000001,1.032072078,0.553300069,0.860130504,-1.264538245,-0.555698809,,Fixed,"Incorrect, no change",1,1,0,2034.0,2548.0,2034,0,99,2500.0,2500.0
277,4,1320,1327,58.03,98.28,467,2460,1,-1,52,50,1,52,50,2,0,1,0,True,1500,968,1426,True,False,2,1500,724,1933,12680,79,50,52,Left,-0.709690615,-0.509642527,0.531065395,0.839735991,-0.428881852,-0.6465165829999999,,Fixed,Correct to incorrect,2,4,0,1426.0,1933.0,1426,2232,99,1500.0,1500.0
278,4,1408,1438,63.67,98.85,458,750,-1,-1,50,50,1,52,50,2,1,1,1,True,1500,799,1342,False,False,2,1500,892,2079,12698,18,52,52,Left,-0.49281730799999995,-0.27367860899999996,0.559869405,0.866156156,-0.428881852,-0.430517551,,Fixed,"Incorrect, no change",2,2,0,1342.0,2079.0,1342,2367,99,1500.0,1500.0
279,4,1749,1485,96.92,96.27,521,510,1,1,50,50,1,47,50,3,0,1,1,False,5250,902,1214,False,False,2,1750,774,5102,12894,196,47,47,Right,0.785735435,1.117420729,0.42949336299999996,0.7465701459999999,0.40677454,0.40647869799999997,,Fixed,"Correct, no change",2,7,1,5102.0,1214.0,1542,5169,99,1750.0,5250.0
280,4,1390,1559,54.0,97.17,691,794,1,1,53,53,2,53,50,3,0,1,1,True,1750,938,4248,True,True,2,5250,782,1624,13069,175,50,50,Right,-0.864655053,-0.6782479509999999,0.47497337799999995,0.7882861959999999,0.40677454,-0.474699172,,Fixed,"Correct, no change",1,6,1,1624.0,4248.0,4581,1624,99,5250.0,1750.0
281,4,1364,1396,52.52,56.08,589,417,-1,-1,50,50,0,52,50,2,1,1,1,True,3750,792,861,False,False,2,1250,920,4034,13113,44,52,52,Right,-0.92156507,-0.7401675609999999,-1.601441946,-1.116283237,-0.428881852,-0.538517067,,Fixed,"Incorrect, no change",1,4,1,4034.0,861.0,1100,0,99,1250.0,3750.0
282,4,1483,1614,49.02,95.5,418,1961,1,1,50,50,1,47,50,3,0,1,1,False,1750,786,5308,False,False,2,5250,908,1371,13284,171,47,47,Left,-1.056149569,-0.88659907,0.39058268399999996,0.710879748,0.40677454,-0.24642746699999998,,Fixed,"Correct, no change",1,5,0,5308.0,1371.0,5308,1652,99,5250.0,1750.0
283,4,1957,1778,50.77,97.15,417,2204,1,1,53,53,2,50,53,3,0,1,1,False,2500,930,2217,False,False,2,2500,782,2464,13457,173,50,50,Right,-0.98885732,-0.813383315,0.47396271100000004,0.787359173,0.40677454,0.917021865,,Fixed,"Correct, no change",1,2,1,2464.0,2217.0,2472,2530,99,2500.0,2500.0
284,4,1347,1335,98.73,98.95,711,802,1,1,50,50,1,48,50,2,0,1,1,False,2500,918,1997,False,False,2,2500,746,2024,13655,198,48,48,Right,0.8553348479999999,1.193146738,0.56492274,0.8707912729999999,-0.428881852,-0.580244153,,Fixed,"Correct, no change",2,0,1,2024.0,1997.0,2200,2090,99,2500.0,2500.0
285,4,1335,1334,75.92,55.8,344,440,-1,-1,50,50,1,50,52,2,1,1,1,False,2500,779,2172,True,True,2,2500,934,2182,13689,34,52,52,Left,-0.02177156,0.238831673,-1.615591283,-1.129261563,-0.428881852,-0.609698567,,Fixed,"Incorrect, no change",2,2,0,2172.0,2182.0,2239,0,99,2500.0,2500.0
286,4,1603,1563,81.78,97.95,1743,696,1,1,53,53,1,50,53,3,0,1,1,False,2500,738,2222,False,False,2,2500,908,2813,13877,188,50,50,Right,0.20356134399999998,0.48399985799999995,0.51438939,0.824440106,0.40677454,0.048116667,,Fixed,"Correct, no change",3,4,1,2813.0,2222.0,2472,0,99,2500.0,2500.0
287,4,1842,1866,96.42,99.03,773,1426,1,1,50,50,2,47,50,3,0,1,1,False,2250,996,1318,False,False,2,750,666,2216,14074,197,47,47,Right,0.766509078,1.096501942,0.568965407,0.8744993659999999,0.40677454,0.634750402,,Fixed,"Correct, no change",2,3,1,2216.0,1318.0,1518,2282,99,750.0,2250.0
288,4,1422,1253,24.45,98.32,356,2344,-1,-1,48,48,0,48,50,2,1,1,1,False,5250,920,1498,True,True,2,1750,770,5020,14111,37,50,50,Right,-2.000932754,-1.914548265,0.533086729,0.841590038,-0.428881852,-0.396154069,,Fixed,"Incorrect, no change",1,6,1,5020.0,1498.0,1771,5020,99,1750.0,5250.0
289,4,1474,1668,85.75,97.33,511,1200,-1,-1,50,50,0,53,50,3,1,1,1,True,1500,767,1472,False,False,2,1500,876,1587,14119,8,53,53,Left,0.35621861899999996,0.650095027,0.483058714,0.795702383,0.40677454,-0.26851827699999997,,Fixed,"Incorrect, no change",3,2,0,1472.0,1587.0,1472,1908,99,1500.0,1500.0
290,4,1810,1359,19.58,97.65,402,761,-1,1,46,50,0,46,50,4,1,1,1,False,750,791,2210,True,False,2,2250,920,730,14257,138,50,46,Right,-2.1881974719999997,-2.118297251,0.499229385,0.8105347559999999,1.242430933,0.5562053000000001,,Fixed,Incorrect to correct,2,5,1,730.0,2210.0,2462,797,99,2250.0,750.0
291,4,1376,1624,73.1,98.88,349,872,1,1,50,50,1,50,45,5,0,1,1,True,2250,787,792,True,True,2,750,910,2795,14442,185,45,45,Left,-0.13020821400000002,0.120849714,0.561385405,0.8675466909999999,2.078087326,-0.509062654,,Fixed,"Correct, no change",2,3,0,792.0,2795.0,859,3022,99,750.0,2250.0
292,4,1525,1714,97.83,98.3,572,1422,1,1,50,50,2,45,50,5,0,1,1,False,1750,964,4929,False,False,2,5250,732,1821,14639,197,45,45,Right,0.820727405,1.155492922,0.532076062,0.8406630140000001,2.078087326,-0.14333702,,Fixed,"Correct, no change",1,5,1,1821.0,4929.0,5186,0,99,5250.0,1750.0
293,5,1268,1813,97.37,98.68,3586,894,1,1,50,50,1,46,50,4,0,1,1,False,1250,924,3441,False,False,2,3750,781,1562,14836,197,46,46,Right,0.8030391570000001,1.136247638,0.551278735,0.858276458,1.242430933,-0.774152375,,Fixed,"Correct, no change",1,7,1,1562.0,3441.0,3680,0,99,3750.0,1250.0
294,5,4266,1626,90.17,97.45,542,1000,-1,-1,50,50,1,54,50,4,1,1,1,True,2500,904,2520,False,False,2,2500,775,2269,14841,5,54,54,Left,0.526179615,0.8350171040000001,0.489122716,0.801264523,1.242430933,6.5845419220000005,,Fixed,"Incorrect, no change",1,2,0,2520.0,2269.0,2520,2587,99,2500.0,2500.0
295,5,1397,1565,96.85,98.18,1785,413,1,1,50,50,1,45,50,5,0,1,1,False,2250,886,1325,False,False,2,750,779,2062,15038,197,45,45,Right,0.783043745,1.114492099,0.526012061,0.8351008740000001,2.078087326,-0.45751743,,Fixed,"Correct, no change",2,3,1,2062.0,1325.0,1528,2129,99,750.0,2250.0
296,5,2786,1254,98.8,96.72,1561,1584,1,1,55,55,2,55,50,5,0,1,1,True,1500,809,2012,True,True,2,1500,900,1320,15235,197,50,50,Right,0.858026538,1.196075369,0.452233371,0.7674281709999999,2.078087326,2.951830928,,Fixed,"Correct, no change",1,3,1,1320.0,2012.0,2295,1320,99,1500.0,1500.0
297,5,1312,1723,39.5,97.58,798,842,1,1,54,54,1,54,50,4,0,1,2,True,3500,796,3471,True,True,2,3500,926,3432,15402,167,50,50,Right,-1.4222194069999998,-1.284892775,0.495692051,0.807290175,1.242430933,-0.666152859,,Fixed,"Correct, no change",1,7,1,3432.0,3471.0,0,3432,99,3500.0,3500.0
298,5,1492,5392,78.63,97.7,369,1382,1,1,50,50,2,50,46,4,0,1,1,True,2250,1002,1298,True,True,2,750,667,2270,15589,187,46,46,Right,0.082435295,0.352211499,0.5017560529999999,0.812852315,1.242430933,-0.224336657,,Fixed,"Correct, no change",3,2,1,2270.0,1298.0,1645,2270,99,750.0,2250.0
299,5,1826,2033,94.6,49.62,400,561,-1,-1,50,50,0,53,50,3,1,1,1,True,1750,809,5022,False,False,2,5250,904,1419,15616,27,53,53,Left,0.696525139,1.020357557,-1.927887382,-1.4157117730000002,0.40677454,0.5954778510000001,,Fixed,"Incorrect, no change",1,2,0,5022.0,1419.0,5022,1755,99,5250.0,1750.0
300,5,3265,2884,98.57,97.65,669,613,1,1,50,50,1,46,50,4,0,1,1,False,1750,898,4992,False,False,2,5250,774,1464,15813,197,46,46,Right,0.849182413,1.186452727,0.499229385,0.8105347559999999,1.242430933,4.1275529319999995,,Fixed,"Correct, no change",1,4,1,1464.0,4992.0,5250,1530,99,5250.0,1750.0
301,5,3265,1666,78.28,90.58,287,802,1,1,50,50,2,46,50,4,0,1,3,False,3750,792,1233,False,False,2,1250,926,3348,15997,184,46,46,Right,0.068976845,0.33756834799999996,0.141958606,0.482832009,1.242430933,4.1275529319999995,,Fixed,"Correct, no change",1,4,1,3348.0,1233.0,1476,3415,99,1250.0,3750.0
302,5,1551,2900,11.92,97.6,411,791,-1,1,47,50,0,47,50,3,1,1,2,False,1500,765,1504,True,False,2,1500,912,2331,16139,142,50,47,Left,-2.482745262,-2.4387730690000002,0.496702718,0.808217198,0.40677454,-0.07951912400000001,,Fixed,Incorrect to correct,3,2,0,1504.0,2331.0,1504,0,99,1500.0,1500.0
303,5,1508,1309,93.03,50.32,394,314,1,1,50,50,1,50,46,4,0,1,1,True,2250,962,748,True,True,2,750,703,2431,16310,171,46,46,Left,0.636154377,0.954672566,-1.892514038,-1.383265956,1.242430933,-0.185064106,,Fixed,"Correct, no change",3,2,0,748.0,2431.0,815,2682,99,750.0,2250.0
304,5,1350,1147,97.08,92.45,774,854,1,1,50,50,2,46,50,4,0,1,1,False,2500,777,2510,False,False,2,2500,942,1864,16504,194,46,46,Left,0.7918878690000001,1.1241147409999999,0.236455969,0.56950869,1.242430933,-0.57288055,,Fixed,"Correct, no change",1,3,0,2510.0,1864.0,2510,1930,99,2500.0,2500.0
305,5,1460,1262,70.62,96.75,440,480,1,1,53,53,1,53,50,3,0,1,2,True,2250,950,1361,True,True,2,750,780,2134,16687,183,50,50,Right,-0.225570945,0.017092531,0.453749371,0.7688187059999999,0.40677454,-0.30288176,,Fixed,"Correct, no change",1,3,1,2134.0,1361.0,0,2134,99,750.0,2250.0
306,5,1480,1364,94.83,94.18,625,3550,1,1,50,50,2,47,50,3,0,1,1,False,5250,844,1596,False,False,2,1750,779,4292,16881,194,47,47,Left,0.705369263,1.0299802,0.323878663,0.6496962079999999,0.40677454,-0.25379107100000003,,Fixed,"Correct, no change",2,5,0,1596.0,4292.0,1596,4572,99,1750.0,5250.0
307,5,2072,5376,78.68,96.63,668,860,1,1,52,52,1,52,50,2,0,1,1,True,3750,960,1028,True,True,2,1250,771,3238,17068,187,50,50,Left,0.08435793,0.35430337799999995,0.447685369,0.7632565659999999,-0.428881852,1.1992933270000001,,Fixed,"Correct, no change",1,3,0,1028.0,3238.0,1094,3436,99,1250.0,3750.0
308,5,1333,3315,97.68,97.68,506,915,1,1,50,50,2,48,50,2,0,1,1,False,3500,900,2855,False,False,2,3500,712,3142,17264,196,48,48,Right,0.814959498,1.1492172859999998,0.5007453860000001,0.811925291,-0.428881852,-0.614607635,,Fixed,"Correct, no change",2,5,1,3142.0,2855.0,3076,3209,99,3500.0,3500.0
309,5,1437,3563,95.7,98.87,801,355,1,1,50,50,1,49,50,1,0,1,0,False,1250,1146,3495,False,False,2,3750,759,1034,17460,196,49,49,Right,0.738823124,1.066378889,0.560880072,0.8670831790000001,-1.264538245,-0.359336052,,Fixed,"Correct, no change",1,2,1,1034.0,3495.0,3764,0,99,3750.0,1250.0
310,5,1477,4329,96.23,18.17,559,725,1,1,50,50,2,49,50,1,0,1,1,False,1250,672,3426,False,False,2,3750,896,1012,17617,157,49,49,Right,0.759203063,1.088552803,-3.517161218,-2.87345596,-1.264538245,-0.261154674,,Fixed,"Correct, no change",1,4,1,1012.0,3426.0,3426,1079,99,3750.0,1250.0
311,5,1118,1424,97.48,97.8,637,674,1,1,51,51,1,50,51,1,0,1,1,False,1750,807,4949,False,False,2,5250,870,1668,17813,196,50,50,Right,0.807268955,1.1408497709999998,0.506809388,0.817487431,-1.264538245,-1.142332543,,Fixed,"Correct, no change",1,6,1,1668.0,4949.0,5202,1735,99,5250.0,1750.0
312,5,1910,1119,87.87,41.27,359,444,1,1,50,50,2,49,50,1,0,1,1,False,3500,904,3366,False,False,2,3500,747,3236,17976,163,49,49,Left,0.43773837299999996,0.738790684,-2.349840849,-1.802744013,-1.264538245,0.801658745,,Fixed,"Correct, no change",2,8,0,3366.0,3236.0,3366,3527,99,3500.0,3500.0
313,5,1493,1118,48.25,98.57,808,1012,-1,-1,50,50,0,50,50,0,1,1,1,False,3750,956,1515,False,False,2,1250,703,2413,18001,25,50,50,Left,-1.085758159,-0.9188140020000001,0.545720067,0.853177829,-2.100194638,-0.22188212300000001,,Fixed,"Incorrect, no change",3,4,0,1515.0,2413.0,0,2709,99,1250.0,3750.0
314,6,1375,1486,93.8,86.65,821,2434,1,-1,50,49,1,49,50,1,0,1,1,False,2250,882,1276,False,True,2,750,788,1392,18103,102,49,50,Right,0.665762967,0.986887498,-0.056637457,0.300671924,-1.264538245,-0.511517188,,Fixed,Correct to incorrect,1,3,1,1392.0,1276.0,1863,1392,99,750.0,2250.0
315,6,1463,1370,79.82,84.6,336,426,-1,-1,50,50,1,51,50,1,1,1,1,True,750,787,2240,False,False,2,2250,908,1325,18120,17,51,51,Left,0.12819402400000002,0.401998212,-0.160230823,0.205652033,-1.264538245,-0.29551815600000003,,Fixed,"Incorrect, no change",2,2,0,2240.0,1325.0,2240,1642,99,2250.0,750.0
316,6,1566,1616,98.05,98.43,914,2172,1,1,52,52,1,50,52,2,0,1,1,False,750,924,2805,False,False,2,2250,772,700,18318,198,50,50,Right,0.8291870020000001,1.1646971879999999,0.538645398,0.8466886659999999,-0.428881852,-0.042701107,,Fixed,"Correct, no change",1,3,1,700.0,2805.0,3076,767,99,2250.0,750.0
317,6,1142,2516,98.27,80.63,763,503,-1,-1,50,50,1,50,52,2,1,1,1,False,1750,916,5018,True,True,2,5250,751,1475,18327,9,52,52,Left,0.837646599,1.1739014540000001,-0.36084822,0.021637902,-0.428881852,-1.083423716,,Fixed,"Incorrect, no change",2,3,0,5018.0,1475.0,5085,2780,99,5250.0,1750.0
318,6,1304,1414,98.37,95.85,1110,1884,1,-1,53,50,1,53,50,3,0,1,1,True,3750,799,1114,True,False,2,1250,884,3415,18428,101,50,53,Left,0.8414918709999999,1.178085212,0.40826935700000005,0.7271026559999999,0.40677454,-0.685789135,,Fixed,Correct to incorrect,2,4,0,1114.0,3415.0,1114,3780,99,1250.0,3750.0
319,6,1958,1436,96.68,97.2,696,855,1,1,53,53,2,53,50,3,0,1,1,True,3750,787,833,True,True,2,1250,942,3716,18624,196,50,50,Right,0.7765067840000001,1.107379712,0.47648937799999996,0.7896767309999999,0.40677454,0.9194763990000001,,Fixed,"Correct, no change",0,3,1,3716.0,833.0,1171,3716,99,1250.0,3750.0
320,6,1102,1377,46.23,98.57,684,654,1,-1,52,50,1,52,50,2,0,1,1,True,3500,791,3566,True,False,2,3500,914,3134,18697,73,50,52,Left,-1.163432642,-1.003325902,0.545720067,0.853177829,-0.428881852,-1.181605095,,Fixed,Correct to incorrect,1,3,0,3566.0,3134.0,3566,3421,99,3500.0,3500.0
321,6,1441,1338,78.15,98.88,340,962,-1,1,50,52,1,52,50,2,1,1,1,True,2500,938,2200,False,True,2,2500,768,2789,18806,109,52,50,Right,0.063977992,0.332129464,0.561385405,0.8675466909999999,-0.428881852,-0.349517914,,Fixed,Incorrect to correct,1,4,1,2789.0,2200.0,2513,0,99,2500.0,2500.0
322,6,1325,1519,34.57,97.35,468,508,-1,1,50,53,0,50,53,3,1,1,1,False,2250,795,1140,True,False,2,750,918,2690,18936,130,53,50,Left,-1.611791288,-1.491152016,0.484069381,0.796629406,0.40677454,-0.634243911,,Fixed,Incorrect to correct,1,5,0,1140.0,2690.0,0,3040,99,750.0,2250.0
323,6,1222,1140,80.7,89.55,358,424,1,1,50,50,1,46,50,4,0,1,1,False,750,942,2195,False,False,2,2250,775,1331,19120,184,46,46,Left,0.16203241300000001,0.438815278,0.08990925599999999,0.435090307,1.242430933,-0.88706096,,Fixed,"Correct, no change",1,2,0,2195.0,1331.0,0,1601,99,2250.0,750.0
324,6,1355,829,18.0,99.0,387,498,1,1,54,54,2,50,54,4,0,1,2,False,1500,940,1014,False,False,2,1500,784,1444,19278,158,50,50,Right,-2.24895276,-2.184400618,0.567449407,0.8731088309999999,1.242430933,-0.560607877,,Fixed,"Correct, no change",1,1,1,1444.0,1014.0,0,1511,99,1500.0,1500.0
325,6,1333,1848,54.2,97.42,714,1047,1,1,53,53,1,53,50,3,0,1,1,True,5250,972,1526,True,True,2,1750,716,5372,19453,175,50,50,Right,-0.85696451,-0.669880436,0.487606715,0.799873988,0.40677454,-0.614607635,,Fixed,"Correct, no change",2,5,1,5372.0,1526.0,1793,0,99,1750.0,5250.0
326,6,1149,1496,96.57,97.02,535,375,1,1,53,53,2,50,53,3,0,1,1,False,3500,906,3280,False,False,2,3500,748,3241,19649,196,50,50,Left,0.772276985,1.102777578,0.467393375,0.781333521,0.40677454,-1.066241975,,Fixed,"Correct, no change",2,2,0,3280.0,3241.0,3280,3505,99,3500.0,3500.0
327,6,1648,1354,84.63,83.57,1803,383,1,1,52,52,1,50,52,2,0,1,1,False,5250,940,1760,False,False,2,1750,779,4961,19832,183,50,50,Left,0.31315157899999996,0.6032369439999999,-0.21228017300000002,0.157910331,-0.428881852,0.158570718,,Fixed,"Correct, no change",1,1,0,1760.0,4961.0,1760,5252,99,1750.0,5250.0
328,6,1165,1206,74.02,75.17,872,382,-1,1,48,50,1,50,48,2,1,1,1,True,2500,964,2240,False,True,2,2500,750,2688,19931,99,50,48,Right,-0.094831717,0.159340283,-0.6367603070000001,-0.231439468,-0.428881852,-1.026969424,,Fixed,Incorrect to correct,1,4,1,2688.0,2240.0,2587,0,99,2500.0,2500.0
329,6,1273,1656,94.42,97.0,768,767,1,1,50,50,1,50,47,3,0,1,3,True,1250,785,3316,True,True,2,3750,922,1384,20126,195,47,47,Left,0.68960365,1.012826794,0.466382708,0.780406498,0.40677454,-0.761879703,,Fixed,"Correct, no change",0,4,0,3316.0,1384.0,3383,1646,99,3750.0,1250.0
330,6,1373,1793,95.2,95.68,398,788,1,1,53,53,2,53,50,3,0,1,1,True,1250,774,3547,True,True,2,3750,916,1302,20320,194,50,50,Right,0.7195967670000001,1.045460102,0.39967868700000003,0.719222958,0.40677454,-0.516426257,,Fixed,"Correct, no change",1,0,1,1302.0,3547.0,3931,1302,99,3750.0,1250.0
331,6,1340,1322,69.5,95.2,369,410,1,1,52,52,1,50,52,2,0,1,2,False,1500,910,2023,False,False,2,1500,763,1494,20501,181,50,50,Right,-0.268637985,-0.029765552,0.37542268,0.6969743979999999,-0.428881852,-0.597425894,,Fixed,"Correct, no change",2,5,1,1494.0,2023.0,0,1560,99,1500.0,1500.0
332,6,1373,1596,74.42,78.25,363,439,-1,-1,48,48,1,48,50,2,1,1,2,False,3750,796,1008,True,True,2,1250,902,3599,20523,22,50,50,Left,-0.07945063200000001,0.17607531199999998,-0.481117591,-0.088677875,-0.428881852,-0.516426257,,Fixed,"Incorrect, no change",3,8,0,1008.0,3599.0,1075,0,99,1250.0,3750.0
333,6,1673,1538,97.98,97.95,603,616,1,1,53,53,1,50,53,3,0,1,1,False,3500,952,3054,False,False,2,3500,746,3391,20719,196,50,50,Left,0.826495312,1.161768558,0.51438939,0.824440106,0.40677454,0.21993407899999998,,Fixed,"Correct, no change",1,8,0,3054.0,3391.0,3054,0,99,3500.0,3500.0
334,6,1251,1578,97.4,96.73,624,908,1,1,53,53,2,53,50,3,0,1,2,True,1750,788,5126,True,True,2,5250,916,1743,20915,196,50,50,Left,0.804192738,1.137502765,0.452738704,0.767891683,0.40677454,-0.815879461,,Fixed,"Correct, no change",0,7,0,5126.0,1743.0,5321,0,99,5250.0,1750.0
335,7,1466,1555,72.35,46.03,492,339,1,-1,52,50,1,52,50,2,0,1,1,True,2250,774,1161,True,False,2,750,904,2698,21027,112,50,52,Left,-0.15904775,0.089471534,-2.109302106,-1.58211246,-0.428881852,-0.288154553,,Fixed,Correct to incorrect,0,3,0,1161.0,2698.0,0,3046,99,750.0,2250.0
336,7,1408,1422,96.05,93.08,754,420,1,1,52,52,2,50,52,2,0,1,2,False,1750,944,5294,False,False,2,5250,791,1806,21221,194,50,50,Left,0.7522815740000001,1.08102204,0.26829197899999996,0.598709925,-0.428881852,-0.430517551,,Fixed,"Correct, no change",1,1,0,5294.0,1806.0,5294,0,99,5250.0,1750.0
337,7,1318,1363,64.22,94.48,859,668,1,1,51,51,1,50,51,1,0,1,1,False,3750,801,1014,False,False,2,1250,910,4134,21400,179,50,50,Right,-0.471668315,-0.250667944,0.339038668,0.663601558,-1.264538245,-0.651425652,,Fixed,"Correct, no change",1,2,1,4134.0,1014.0,1228,0,99,1250.0,3750.0
338,7,1352,1534,75.68,96.38,352,1197,1,-1,50,49,2,49,50,1,0,1,1,False,2500,808,2742,False,True,2,2500,882,2274,21488,88,49,50,Left,-0.031000212000000003,0.228790656,0.43505203200000003,0.751668775,-1.264538245,-0.5679714810000001,,Fixed,Correct to incorrect,2,3,0,2742.0,2274.0,0,2492,99,2500.0,2500.0
339,7,1827,1420,85.17,97.95,377,957,-1,-1,50,50,0,50,50,0,1,1,2,False,1750,958,4316,False,False,2,5250,752,1494,21496,8,50,50,Right,0.333916045,0.625829234,0.51438939,0.824440106,-2.100194638,0.597932386,,Fixed,"Incorrect, no change",0,7,1,1494.0,4316.0,0,1561,99,5250.0,1750.0
340,7,1355,1490,47.58,91.8,324,882,-1,-1,49,49,0,50,49,1,1,1,2,True,750,942,2900,False,False,2,2250,771,498,21526,30,50,50,Right,-1.111521478,-0.946845177,0.203609292,0.5393804320000001,-1.264538245,-0.560607877,,Fixed,"Incorrect, no change",1,2,1,498.0,2900.0,0,565,99,2250.0,750.0
341,7,1429,1204,92.1,39.58,588,1562,1,1,52,52,1,52,50,2,0,1,1,True,2500,944,2828,True,True,2,2500,780,2234,21691,165,50,50,Left,0.600393353,0.915763622,-2.435242209,-1.881077485,-0.428881852,-0.37897232799999997,,Fixed,"Correct, no change",0,3,0,2828.0,2234.0,0,2424,99,2500.0,2500.0
342,7,1273,1597,42.08,45.02,329,698,-1,-1,48,48,1,48,50,2,1,1,1,False,2250,808,616,True,True,2,750,870,2526,21746,55,50,50,Left,-1.323011405,-1.176951834,-2.160340789,-1.628927139,-0.428881852,-0.761879703,,Fixed,"Incorrect, no change",1,2,0,616.0,2526.0,682,2708,99,750.0,2250.0
343,7,1120,1248,68.15,95.57,485,631,1,1,53,53,1,50,53,3,0,1,2,False,750,790,2266,False,False,2,2250,966,1596,21927,181,50,50,Left,-0.320549149,-0.086246277,0.394120019,0.71412433,0.40677454,-1.137423474,,Fixed,"Correct, no change",1,1,0,2266.0,1596.0,2266,0,99,2250.0,750.0
344,7,1263,1281,94.9,90.38,339,1039,1,1,53,53,2,50,53,3,0,1,1,False,2500,634,2245,False,False,2,2500,926,2372,22119,192,50,50,Right,0.7080609529999999,1.03290883,0.131851936,0.473561775,0.40677454,-0.786425047,,Fixed,"Correct, no change",2,3,1,2372.0,2245.0,2460,2439,99,2500.0,2500.0
