BLOCK,CHOICE_RT_1,CHOICE_RT_2,CONF_1,CONF_2,CONF_RT_1,CONF_RT_2,CORRECT,CORRECT_2,Chosen_Nr_1,Chosen_Nr_2,Correct_Count,DOTS_LEFT,DOTS_RIGHT,Dot_Diff,Error_Count,GSF_First_Presentation,GSF_Second_Presentation,LEFT_MOST_DOTS,LEFT_PRESENTATION_TIME,Left_IA_First_Dwell_Time,Left_IA_Second_Dwell_Time,PICKED_LEFT_1,PICKED_LEFT_2,Participant,RIGHT_PRESENTATION_TIME,Right_IA_First_Dwell_Time,Right_IA_Second_Dwell_Time,TOTAL_POINTS,TRIAL_POINTS,Unchosen_Nr_1,Unchosen_Nr_2,Which_First,ZConf1,ZConf1ALL,ZConf2,ZConf2ALL,ZDot_Diff,ZRT,sampling_time,session,type,Internal_Saccades_First,Internal_Saccades_Second
0,2568,2066,43.42,40.87,1098,2337,-1,1,50,51,0,50,51,1,1,1,8,FALSE,,788,2360,TRUE,FALSE,1,,743,3029,98,98,51,50,Left,-0.312941143,-0.295608682,-0.606817605,-0.378307106,-1.381358503,-0.240752446,7000,Free,Incorrect to correct,5,14
0,1660,1888,56.7,68.67,951,227,1,1,52,52,1,52,50,2,0,1,2,TRUE,,678,1182,TRUE,TRUE,1,,830,920,260,162,50,50,Right,0.973639092,0.626890261,1.623821053,1.230338967,-0.641764291,-0.914925293,3000,Free,"Correct, no change",5,8
0,2057,2527,52.7,49.03,948,236,1,-1,50,48,2,48,50,2,0,1,4,FALSE,,848,2196,FALSE,TRUE,1,,698,3336,361,101,48,50,Right,0.586114925,0.349029134,0.047931008,0.093871022,-0.641764291,-0.620160293,7000,Free,Correct to incorrect,5,19
0,2721,3609,67.68,69.9,1377,499,-1,-1,49,49,0,49,50,1,1,1,1,FALSE,,566,1162,TRUE,TRUE,1,,672,950,392,31,50,50,Right,2.037392931,1.389619057,1.722514778,1.301512876,-1.381358503,-0.127152836,3000,Free,"Incorrect, no change",3,8
0,1327,2774,33.57,34.33,1403,2668,-1,1,48,50,0,50,48,2,1,1,4,TRUE,,632,3297,FALSE,TRUE,1,,904,2440,492,100,50,48,Left,-1.267219404,-0.979841709,-1.131579361,-0.756743987,-0.641764291,-1.162171502,7000,Free,Incorrect to correct,4,18
0,4659,5497,39.17,37.25,1342,1308,1,1,50,50,1,47,50,3,0,1,2,FALSE,,756,2174,FALSE,FALSE,1,,824,1890,629,137,47,47,Right,-0.72468557,-0.590836131,-0.897282063,-0.587778285,0.097829922,1.311775553,5000,Free,"Correct, no change",3,12
0,3863,2128,46.78,40.25,1107,2293,1,-1,50,47,2,47,50,3,0,1,3,FALSE,,628,2090,FALSE,TRUE,1,,932,1793,731,102,47,50,Left,0.012579157,-0.062205335,-0.656565661,-0.414183385,0.097829922,0.72076059,5000,Free,Correct to incorrect,5,13
0,2229,3218,39.98,50.47,1615,295,-1,-1,48,48,0,48,50,2,1,1,3,FALSE,,850,2150,TRUE,TRUE,1,,660,1592,785,54,50,50,Right,-0.646211927,-0.534569252,0.163474881,0.177196574,-0.641764291,-0.492453542,5000,Free,"Incorrect, no change",4,12
0,2586,2190,56.2,59.97,952,1351,1,1,53,53,1,53,50,3,0,1,1,TRUE,,874,940,TRUE,TRUE,1,,742,1305,942,157,50,50,Left,0.925198571,0.59215762,0.925743488,0.726913757,0.097829922,-0.227387786,3000,Free,"Correct, no change",6,8
0,3739,2425,38.2,33.68,1716,1073,1,1,50,50,2,47,50,3,0,2,5,FALSE,,734,3086,FALSE,FALSE,1,,674,2478,1077,135,47,47,Right,-0.818660181,-0.658217454,-1.183734582,-0.794356216,0.097829922,0.628692933,7000,Free,"Correct, no change",4,16
0,1892,2393,49.67,36.28,636,1652,-1,-1,48,48,0,48,50,2,1,1,1,FALSE,,911,716,TRUE,TRUE,1,,644,1586,1133,56,50,50,Right,0.292565368,0.13854933,-0.9751137,-0.643907302,-0.641764291,-0.742669676,3000,Free,"Incorrect, no change",4,8
0,4353,13762,29.15,46.32,358,116,1,1,50,50,1,47,50,3,0,1,3,FALSE,,586,1580,FALSE,FALSE,1,,990,2076,1270,137,47,47,Left,-1.695433609,-1.286878255,-0.169516141,-0.062943037,0.097829922,1.084576334,5000,Free,"Correct, no change",5,12
0,3072,2645,46.58,37.53,444,578,1,-1,50,47,2,50,47,3,0,1,4,TRUE,,888,3132,TRUE,FALSE,1,,630,2580,1374,104,47,50,Left,-0.006797051,-0.076098392,-0.874815199,-0.571576094,0.097829922,0.133458033,7000,Free,Correct to incorrect,3,17
0,2534,1852,31.07,53.48,2362,1396,1,1,50,50,1,48,50,2,0,2,1,FALSE,,1090,1488,FALSE,FALSE,1,,620,1209,1515,141,48,48,Right,-1.509422009,-1.153504914,0.404993671,0.351370124,-0.641764291,-0.265996804,3000,Free,"Correct, no change",5,8
0,3891,17899,52.58,64.42,439,707,1,-1,52,50,2,52,50,2,0,1,5,TRUE,,776,2718,TRUE,FALSE,1,,698,2484,1608,93,50,52,Right,0.5744892,0.3406933,1.28280615,0.984412859,-0.641764291,0.741550061,7000,Free,Correct to incorrect,5,15
0,3232,8829,66.78,61.28,2212,1069,1,1,50,50,1,50,49,1,0,1,4,TRUE,,852,2287,TRUE,TRUE,1,,725,1660,1771,163,49,49,Left,1.950199993,1.327100303,1.030856316,0.802716864,-1.381358503,0.25225501,5000,Free,"Correct, no change",5,11
0,6576,2903,56.45,46.95,762,1701,-1,-1,50,50,1,50,51,1,1,1,2,FALSE,,763,1064,TRUE,TRUE,1,,822,1294,1818,47,51,51,Right,0.949418831,0.609523941,-0.118965697,-0.026488108,-1.381358503,2.73511184,3000,Free,"Incorrect, no change",4,7
0,5262,2784,46.7,48.4,2561,730,-1,1,50,52,0,52,50,2,1,1,4,TRUE,,874,1854,FALSE,TRUE,1,,764,2018,1918,100,52,50,Left,0.004828674,-0.067762558,-0.002619436,0.057416093,-0.641764291,1.759491662,5000,Free,Incorrect to correct,3,11
0,3704,2169,47.58,60.72,1056,2037,1,1,53,53,1,53,50,3,0,1,2,TRUE,,900,3552,TRUE,TRUE,1,,766,1589,2071,153,50,50,Left,0.090083991,-0.00663311,0.985922588,0.770312482,0.097829922,0.602706094,7000,Free,"Correct, no change",4,12
0,1630,2301,44.97,48.07,2641,1039,1,1,50,50,2,50,47,3,0,1,2,TRUE,,749,1340,TRUE,TRUE,1,,708,1100,2217,146,47,47,Right,-0.162775528,-0.187937495,-0.02909824,0.038320654,0.097829922,-0.937199726,3000,Free,"Correct, no change",5,7
1,4509,1982,35.88,38.05,4958,3656,-1,1,50,52,0,50,52,2,1,1,4,FALSE,,596,2122,TRUE,FALSE,1,,842,2327,2318,101,52,50,Right,-1.043424198,-0.819376908,-0.833091023,-0.541486311,-0.641764291,1.200403387,5000,Free,Incorrect to correct,4,12
1,1268,1439,64.65,66.32,1220,2644,1,1,50,50,1,50,47,3,0,1,3,TRUE,,932,2866,TRUE,TRUE,1,,730,1472,2483,165,47,47,Left,1.743843374,1.179139253,1.435259872,1.094356295,0.097829922,-1.205977888,7000,Free,"Correct, no change",3,10
1,2840,3073,28.88,31.77,2951,1177,1,1,53,53,2,50,53,3,0,1,4,FALSE,,812,1833,FALSE,FALSE,1,,710,2150,2612,129,50,50,Right,-1.72159149,-1.305633881,-1.336990691,-0.904878302,0.097829922,-0.038797584,5000,Free,"Correct, no change",4,9
1,1662,2404,39.63,52.1,840,1190,-1,1,50,52,0,52,50,2,1,1,2,TRUE,,999,1257,FALSE,TRUE,1,,857,954,2718,106,52,50,Left,-0.680120291,-0.558882101,0.294264126,0.27151647,-0.641764291,-0.913440331,3000,Free,Incorrect to correct,6,7
1,6142,1885,49.63,48.9,2520,413,1,-1,53,50,1,50,53,3,0,2,7,FALSE,,785,3070,FALSE,TRUE,1,,818,2455,2817,99,50,53,Left,0.288690127,0.135770718,0.037499964,0.086348577,0.097829922,2.412875038,7000,Free,Correct to incorrect,6,14
1,1495,2861,56.1,65.85,1300,1182,1,1,53,53,2,53,50,3,0,1,6,TRUE,,938,2482,TRUE,TRUE,1,,733,2752,2977,160,50,50,Left,0.915510467,0.585211092,1.397547635,1.067159761,0.097829922,-1.037434676,7000,Free,"Correct, no change",5,17
1,3278,2555,43.13,40.88,589,1844,1,1,50,50,1,48,50,2,0,2,1,FALSE,,911,802,FALSE,FALSE,1,,800,1518,3118,141,48,48,Right,-0.341036645,-0.315753614,-0.606015217,-0.377728456,-0.641764291,0.286409142,3000,Free,"Correct, no change",5,10
1,1247,2160,46.5,38.88,2942,2348,1,1,52,52,2,50,52,2,0,2,1,FALSE,,742,1468,FALSE,FALSE,1,,784,814,3260,142,50,50,Left,-0.014547534,-0.081655614,-0.766492818,-0.493458389,-0.641764291,-1.221569991,3000,Free,"Correct, no change",4,8
1,2091,3409,38.73,37.82,1927,1283,1,-1,50,49,1,49,50,1,0,1,4,FALSE,,592,2389,FALSE,TRUE,1,,994,2064,3360,100,49,50,Left,-0.767313229,-0.621400855,-0.851545947,-0.554795254,-1.381358503,-0.594915935,5000,Free,Correct to incorrect,4,12
1,1524,8855,39.7,45.6,1696,600,1,-1,51,50,2,51,50,1,0,1,3,TRUE,,737,1748,TRUE,FALSE,1,,844,2212,3456,96,50,51,Right,-0.673338618,-0.554019531,-0.227288078,-0.104605813,-1.381358503,-1.015902724,5000,Free,Correct to incorrect,5,13
1,2600,5412,41.17,53.02,2053,748,-1,-1,50,50,0,50,50,0,1,1,2,FALSE,,792,2392,TRUE,TRUE,1,,620,1293,3508,52,50,50,Left,-0.530923487,-0.451905567,0.368083823,0.324752239,-2.120952716,-0.216993051,5000,Free,"Incorrect, no change",3,10
1,3631,2981,28.07,26.67,2401,422,1,1,51,51,1,51,50,1,0,1,3,TRUE,,806,1854,TRUE,TRUE,1,,846,2172,3635,127,50,50,Left,-1.800065134,-1.36190076,-1.746208574,-1.199989632,-1.381358503,0.548504973,5000,Free,"Correct, no change",5,12
1,3260,7285,40.9,33.15,2225,367,1,-1,51,50,2,51,50,1,0,1,4,TRUE,,740,2202,TRUE,FALSE,1,,875,2037,3738,103,50,51,Left,-0.557081368,-0.470661193,-1.226261146,-0.825024648,-1.381358503,0.273044482,5000,Free,Correct to incorrect,4,11
1,5917,25245,37.22,48.5,614,220,-1,-1,50,50,0,50,50,0,1,1,1,FALSE,,872,155,FALSE,FALSE,1,,468,1970,3794,56,50,50,Right,-0.913603602,-0.72629343,0.005404444,0.06320259,-2.120952716,2.245816789,3000,Free,"Incorrect, no change",3,3
1,946,3798,37.52,33.7,675,1554,1,-1,51,50,1,50,51,1,0,1,5,FALSE,,1056,2273,FALSE,TRUE,1,,733,2850,3895,101,50,51,Left,-0.884539289,-0.705453846,-1.182129806,-0.793198916,-1.381358503,-1.445056805,7000,Free,Correct to incorrect,5,16
1,2794,3373,37.23,43.42,657,394,-1,1,49,50,1,50,49,1,1,1,5,TRUE,,586,2169,FALSE,TRUE,1,,968,3276,3997,102,50,49,Left,-0.912634791,-0.725598777,-0.402208663,-0.230751441,-1.381358503,-0.072951715,7000,Free,Incorrect to correct,5,14
1,2096,39883,36.17,46.87,779,219,1,1,50,50,1,48,50,2,0,2,3,FALSE,,821,1194,FALSE,FALSE,1,,678,1186,4138,141,48,48,Left,-1.015328696,-0.799231976,-0.125384801,-0.031117306,-0.641764291,-0.59120353,3000,Free,"Correct, no change",5,7
1,1975,1671,48,42.95,1628,2438,-1,-1,50,50,1,50,52,2,1,1,6,FALSE,,726,2782,TRUE,TRUE,1,,808,2840,4192,54,52,52,Right,0.130774028,0.022542309,-0.4399209,-0.257947975,-0.641764291,-0.681043744,7000,Free,"Incorrect, no change",5,17
1,2383,4271,46.33,44.05,315,319,1,-1,50,47,1,50,47,3,0,2,6,TRUE,,576,2634,TRUE,FALSE,1,,1004,3056,4292,100,47,50,Right,-0.031017311,-0.093464712,-0.351658219,-0.194296512,0.097829922,-0.378111451,7000,Free,Correct to incorrect,2,20
1,4894,3119,36.53,37.52,730,1945,-1,1,50,53,1,53,50,3,1,2,1,TRUE,,663,482,FALSE,TRUE,1,,888,1500,4391,99,53,50,Left,-0.980451521,-0.774224475,-0.875617587,-0.572154744,0.097829922,1.486258614,3000,Free,Incorrect to correct,4,5
1,2937,2794,46.18,57.03,543,867,1,1,50,50,1,50,46,4,0,2,4,TRUE,,798,2148,TRUE,TRUE,1,,713,1472,4542,151,46,46,Right,-0.045549468,-0.103884504,0.689841414,0.556790755,0.837424135,0.033223083,5000,Free,"Correct, no change",4,8
2,1121,1969,59.13,61.9,1205,2394,1,1,50,50,2,50,46,4,0,1,2,TRUE,,462,1441,TRUE,TRUE,1,,810,730,4701,159,46,46,Right,1.209060023,0.795690896,1.080604373,0.838593143,0.837424135,-1.315122611,3000,Free,"Correct, no change",3,6
2,2251,5349,63.55,66.95,1912,895,1,1,50,50,1,50,47,3,0,1,3,TRUE,,1211,930,TRUE,TRUE,1,,752,1121,4865,164,47,47,Left,1.637274228,1.102727442,1.485810316,1.130811224,0.097829922,-0.476118958,3000,Free,"Correct, no change",2,4
2,4762,15457,48.68,47.22,2948,98,1,1,53,53,2,50,53,3,0,2,4,FALSE,,878,1626,FALSE,FALSE,1,,658,2746,5012,147,50,50,Left,0.196653137,0.0697787,-0.097301221,-0.010864567,0.097829922,1.388251107,7000,Free,"Correct, no change",4,11
2,3486,4223,46.9,47.12,1150,902,1,1,52,52,1,50,52,2,0,1,2,FALSE,,773,1256,FALSE,FALSE,1,,834,2644,5158,146,50,50,Right,0.024204883,-0.053869501,-0.105325101,-0.016651064,-0.641764291,0.440845212,5000,Free,"Correct, no change",4,12
2,5276,2141,41.92,43.97,1758,539,1,1,50,50,2,48,50,2,0,2,2,FALSE,,889,850,FALSE,FALSE,1,,726,1284,5299,141,48,48,Left,-0.458262706,-0.399806605,-0.358077323,-0.198925709,-0.641764291,1.769886398,3000,Free,"Correct, no change",4,6
2,1273,1673,46.85,48.47,647,2469,1,1,51,51,1,51,50,1,0,3,4,TRUE,,934,3178,TRUE,TRUE,1,,645,2699,5446,147,50,50,Right,0.01936083,-0.057342765,0.00299728,0.061466641,-1.381358503,-1.202265482,7000,Free,"Correct, no change",5,15
2,2774,3949,37.78,33.82,1246,4126,-1,-1,49,49,1,50,49,1,1,1,2,TRUE,,947,1056,FALSE,FALSE,1,,624,1591,5510,64,50,50,Right,-0.859350219,-0.687392872,-1.172501149,-0.78625512,-1.381358503,-0.087801338,3000,Free,"Incorrect, no change",5,9
2,1618,2240,50.15,64.42,328,1469,1,1,50,50,1,50,48,2,0,1,2,TRUE,,794,1386,TRUE,TRUE,1,,802,904,5667,157,48,48,Right,0.339068268,0.171892665,1.28280615,0.984412859,-0.641764291,-0.9461095,3000,Free,"Correct, no change",4,6
2,1546,9155,54.4,45.9,644,76,1,-1,50,48,2,50,48,2,0,1,2,TRUE,,646,2794,TRUE,FALSE,1,,788,1414,5771,104,48,50,Right,0.750812696,0.467120113,-0.203216438,-0.087246323,-0.641764291,-0.99956814,5000,Free,Correct to incorrect,4,14
2,1460,2314,53.38,55.2,1958,469,1,1,51,51,1,51,50,1,0,1,4,TRUE,,824,2884,TRUE,TRUE,1,,759,3018,5924,153,50,50,Left,0.651994033,0.396265525,0.543004408,0.450897866,-1.381358503,-1.063421515,7000,Free,"Correct, no change",4,16
2,1605,2317,58.93,54.87,781,601,1,1,50,50,2,50,49,1,0,1,4,TRUE,,882,2124,TRUE,TRUE,1,,727,1726,6080,156,49,49,Left,1.189683815,0.78179784,0.516525604,0.431802427,-1.381358503,-0.955761754,5000,Free,"Correct, no change",4,11
2,3991,2963,37.45,31.33,3116,979,-1,-1,50,50,0,50,50,0,1,1,2,FALSE,,794,1575,FALSE,TRUE,1,,866,1194,6145,65,50,50,Left,-0.891320962,-0.710316415,-1.372295763,-0.930338887,-2.120952716,0.815798172,3000,Free,"Incorrect, no change",5,5
2,4437,41699,35.82,48.75,2208,91,1,-1,51,50,1,51,50,1,0,1,4,TRUE,,985,2648,TRUE,FALSE,1,,730,3208,6237,92,50,51,Left,-1.04923706,-0.823544825,0.025464144,0.077668832,-1.381358503,1.146944747,7000,Free,Correct to incorrect,5,19
2,4096,3913,36.23,43.32,1235,1941,1,1,50,50,2,49,50,1,0,2,4,FALSE,,535,1966,FALSE,FALSE,1,,948,1875,6376,139,49,49,Left,-1.009515833,-0.795064059,-0.410232543,-0.236537937,-1.381358503,0.893758689,5000,Free,"Correct, no change",3,11
2,3946,2213,45.2,45.42,1541,1213,-1,-1,50,50,0,50,50,0,1,1,2,FALSE,,948,2568,TRUE,FALSE,1,,701,3112,6430,54,50,50,Left,-0.140492889,-0.171960481,-0.241731062,-0.115021507,-2.120952716,0.782386522,7000,Free,"Incorrect, no change",4,15
2,2498,3758,42.67,49.52,1709,2062,1,-1,51,50,1,51,50,1,0,1,6,TRUE,,870,3333,TRUE,FALSE,1,,598,2262,6526,96,50,51,Right,-0.385601924,-0.347707644,0.087248021,0.122224856,-1.381358503,-0.292726124,7000,Free,Correct to incorrect,5,15
2,3338,1594,42.18,46.38,444,1621,-1,-1,50,50,1,51,50,1,1,1,4,TRUE,,888,2238,FALSE,FALSE,1,,739,1680,6580,54,51,51,Left,-0.433073635,-0.381745632,-0.164701813,-0.059471139,-1.381358503,0.330958008,5000,Free,"Incorrect, no change",5,11
2,2617,1591,41.52,36.12,1129,6779,-1,-1,50,50,0,52,50,2,1,1,3,TRUE,,816,1490,FALSE,FALSE,1,,726,2472,6640,60,52,52,Right,-0.497015122,-0.427592718,-0.987951908,-0.653165697,-0.641764291,-0.204370872,5000,Free,"Incorrect, no change",5,11
2,2557,6301,35.27,39.67,402,910,1,1,53,53,1,50,53,3,0,1,2,FALSE,,664,1356,FALSE,FALSE,1,,748,1004,6776,136,50,50,Right,-1.102521633,-0.86175073,-0.703104166,-0.447745065,0.097829922,-0.248919738,3000,Free,"Correct, no change",4,7
2,1805,1696,61.58,47.13,2207,363,1,1,53,53,2,50,53,3,0,1,2,FALSE,,928,1282,FALSE,FALSE,1,,708,1078,6929,153,50,50,Left,1.446418576,0.965880837,-0.104522713,-0.016072414,0.097829922,-0.807265532,3000,Free,"Correct, no change",4,8
2,1673,2950,43.23,51.38,469,468,1,1,52,52,1,52,50,2,0,1,3,TRUE,,926,1550,TRUE,TRUE,1,,644,1758,7075,146,50,50,Right,-0.331348541,-0.308807086,0.23649219,0.229853694,-0.641764291,-0.905273039,5000,Free,"Correct, no change",3,7
3,2170,3257,44.85,50.9,378,1233,1,1,50,50,2,50,48,2,0,2,6,TRUE,,632,2067,TRUE,TRUE,1,,761,3592,7222,147,48,48,Right,-0.174401253,-0.196273329,0.197977566,0.20207851,-0.641764291,-0.536259927,7000,Free,"Correct, no change",2,16
3,1761,1929,53.75,69.72,333,1030,1,1,50,50,1,50,49,1,0,1,2,TRUE,,850,1704,TRUE,TRUE,1,,864,974,7382,160,49,49,Left,0.687840019,0.42196768,1.708071794,1.291097182,-1.381358503,-0.839934701,5000,Free,"Correct, no change",5,8
3,4984,4291,29.5,33.1,2416,255,1,1,50,50,2,49,50,1,0,2,3,FALSE,,866,1833,FALSE,FALSE,1,,698,2578,7512,130,49,49,Left,-1.661525244,-1.262565407,-1.230273086,-0.827917896,-1.381358503,1.553081914,5000,Free,"Correct, no change",3,14
3,1318,2474,55.42,66.12,1578,5414,-1,-1,50,50,0,50,50,0,1,2,4,FALSE,,1013,4111,TRUE,TRUE,1,,812,1766,7550,38,50,50,Right,0.849631358,0.537974701,1.419212112,1.082783302,-2.120952716,-1.168853832,7000,Free,"Incorrect, no change",6,12
3,3625,3438,59.95,32.57,3942,1273,-1,-1,50,50,0,50,51,1,1,1,2,FALSE,,796,2558,TRUE,TRUE,1,,740,1614,7603,53,51,51,Right,1.288502478,0.852652428,-1.27279965,-0.858586329,-1.381358503,0.544050086,5000,Free,"Incorrect, no change",3,14
3,2981,3832,38.47,45.95,2255,1647,1,1,52,52,1,52,50,2,0,1,3,TRUE,,882,2738,TRUE,TRUE,1,,644,1268,7744,141,50,50,Right,-0.7925023,-0.639461828,-0.199204498,-0.084353075,-0.641764291,0.065892252,5000,Free,"Correct, no change",5,14
3,3292,2739,43.98,44.17,1768,1668,-1,1,48,50,1,50,48,2,1,1,3,TRUE,,906,2463,FALSE,TRUE,1,,755,1680,7844,100,50,48,Left,-0.258687759,-0.256708125,-0.342029563,-0.187352716,-0.641764291,0.296803877,5000,Free,Incorrect to correct,4,12
3,1532,3442,36.13,45.57,1975,2097,1,1,50,50,1,47,50,3,0,1,2,FALSE,,908,1012,FALSE,FALSE,1,,766,1242,7984,140,47,47,Left,-1.019203937,-0.802010588,-0.229695242,-0.106341762,0.097829922,-1.009962875,3000,Free,"Correct, no change",4,6
3,3835,2480,35.58,41.25,1704,2004,-1,1,50,53,1,50,53,3,1,1,2,FALSE,,898,1444,TRUE,FALSE,1,,748,3149,8086,102,53,50,Left,-1.07248851,-0.840216493,-0.576326861,-0.356318418,0.097829922,0.699971119,5000,Free,Incorrect to correct,5,13
3,3152,1809,43.2,69.6,483,2807,1,1,54,54,1,54,50,4,0,2,3,TRUE,,791,627,TRUE,TRUE,1,,834,1514,8241,155,50,50,Left,-0.334254972,-0.310891044,1.698443138,1.284153386,0.837424135,0.192856522,3000,Free,"Correct, no change",3,6
3,2922,3680,50.45,30.3,1922,3569,1,-1,50,46,2,46,50,4,0,1,3,FALSE,,954,2987,FALSE,TRUE,1,,738,3227,8350,109,46,50,Left,0.368132581,0.192732249,-1.454941728,-0.989939803,0.837424135,0.022085867,7000,Free,Correct to incorrect,4,22
3,2701,2349,42.47,50.22,320,1831,-1,1,50,53,0,53,50,3,1,1,4,TRUE,,870,2536,FALSE,TRUE,1,,608,3050,8453,103,53,50,Left,-0.404978133,-0.3616007,0.143415181,0.162730333,0.097829922,-0.142002458,7000,Free,Incorrect to correct,5,16
3,3797,13523,43.1,36.7,2526,532,-1,1,46,50,0,46,50,4,1,1,4,FALSE,,819,3689,TRUE,FALSE,1,,612,2540,8549,96,50,46,Right,-0.343943076,-0.317837573,-0.941413404,-0.619604016,0.837424135,0.671756837,7000,Free,Incorrect to correct,4,20
3,1551,2393,57.02,64.67,4652,2388,1,1,50,50,1,45,50,5,0,1,2,FALSE,,872,1222,FALSE,FALSE,1,,796,1052,8709,160,45,45,Left,1.004641025,0.649119152,1.302865851,0.998879101,1.577018348,-0.995855734,3000,Free,"Correct, no change",4,6
3,5646,2838,57.47,63.82,2963,11249,1,1,50,50,2,45,50,5,0,1,6,FALSE,,450,2330,FALSE,FALSE,1,,1170,3122,8868,159,45,45,Left,1.048237494,0.680378528,1.23466287,0.949693879,1.577018348,2.044604408,7000,Free,"Correct, no change",4,16
3,3783,8819,20.77,32.83,335,477,1,1,50,50,1,50,46,4,0,1,2,TRUE,,766,902,TRUE,TRUE,1,,794,1579,8994,126,46,46,Right,-2.507296739,-1.868997318,-1.251937562,-0.843541437,0.837424135,0.661362102,3000,Free,"Correct, no change",4,7
3,5416,1874,50.87,35.3,1503,813,-1,1,46,50,1,46,50,4,1,1,1,FALSE,,698,1142,TRUE,FALSE,1,,784,1292,9085,91,50,46,Right,0.408822618,0.221907668,-1.053747724,-0.70061497,0.837424135,1.873833753,3000,Free,Incorrect to correct,4,7
3,4596,14474,50.75,41.93,15704,1373,1,1,50,50,1,45,50,5,0,2,6,FALSE,,552,2220,FALSE,FALSE,1,,838,3865,9230,145,45,45,Right,0.397196893,0.213571834,-0.521764476,-0.316970241,1.577018348,1.264999243,7000,Free,"Correct, no change",4,15
3,2965,4036,48.52,41.8,1531,1273,-1,1,45,50,1,45,50,5,1,1,3,FALSE,,870,1698,TRUE,FALSE,1,,704,2236,9325,95,50,45,Right,0.18115217,0.058664255,-0.53219552,-0.324492687,1.577018348,0.054012554,5000,Free,Incorrect to correct,5,12
3,3296,5249,48.82,67.32,1529,7421,1,1,50,50,1,44,50,6,0,1,3,FALSE,,490,1006,FALSE,FALSE,1,,754,3896,9482,157,44,44,Left,0.210216483,0.07950384,1.515498672,1.152221262,2.316612561,0.299773801,7000,Free,"Correct, no change",3,14
3,2538,3736,54.5,64.62,1768,1757,1,1,50,50,2,50,44,6,0,1,3,TRUE,,908,1334,TRUE,TRUE,1,,729,913,9641,159,44,44,Left,0.7605008,0.474066641,1.298853911,0.995985852,2.316612561,-0.263026879,3000,Free,"Correct, no change",5,5
4,1553,2540,53.08,68.73,1099,3373,1,1,55,55,1,50,55,5,0,1,2,FALSE,,602,912,FALSE,FALSE,1,,845,789,9801,160,50,50,Left,0.622929721,0.375425941,1.628635381,1.233810865,1.577018348,-0.994370772,3000,Free,"Correct, no change",5,5
4,4220,3666,38.62,61.92,1811,2045,1,1,55,55,2,55,50,5,0,2,4,TRUE,,812,3160,TRUE,TRUE,1,,695,2736,9950,149,50,50,Right,-0.777970143,-0.629042036,1.082209149,0.839750442,1.577018348,0.985826346,7000,Free,"Correct, no change",4,16
4,2803,1713,54.48,62.15,3848,8869,1,1,50,50,1,50,46,4,0,1,5,TRUE,,614,2338,TRUE,TRUE,1,,1074,2174,10108,158,46,46,Left,0.758563179,0.472677336,1.100664073,0.853059385,0.837424135,-0.066269385,7000,Free,"Correct, no change",4,10
4,1635,2675,61.88,68.33,916,533,1,1,50,50,2,50,46,4,0,2,3,TRUE,,648,1386,TRUE,TRUE,1,,706,2518,10272,164,46,46,Right,1.475482888,0.986720422,1.596539861,1.210664878,0.837424135,-0.933487321,5000,Free,"Correct, no change",4,12
4,4976,2415,28.58,43.05,548,1914,1,1,50,50,1,50,47,3,0,1,1,TRUE,,812,948,TRUE,TRUE,1,,680,1258,10407,135,47,47,Right,-1.750655803,-1.326473466,-0.431897019,-0.252161478,0.097829922,1.547142065,3000,Free,"Correct, no change",6,6
4,3941,1267,38.22,56.85,1013,1595,-1,1,47,50,1,50,47,3,1,1,3,TRUE,,820,2708,FALSE,TRUE,1,,834,986,10515,108,50,47,Left,-0.81672256,-0.656828148,0.67539843,0.546375061,0.097829922,0.778674117,5000,Free,Incorrect to correct,4,9
4,2862,1790,45.2,61.07,990,1663,-1,1,50,54,0,54,50,4,1,1,2,TRUE,,880,1516,FALSE,TRUE,1,,770,678,10622,107,54,50,Left,-0.140492889,-0.171960481,1.014006168,0.790565221,0.837424135,-0.022463,3000,Free,Incorrect to correct,5,6
4,4703,3555,59.22,61.63,1778,1378,1,1,50,50,1,45,50,5,0,1,2,FALSE,,853,1300,FALSE,FALSE,1,,660,1371,10781,159,45,45,Right,1.217779317,0.801942772,1.058939897,0.822969602,1.577018348,1.344444722,3000,Free,"Correct, no change",6,9
4,2307,964,61.33,71.03,976,1273,1,1,50,50,2,50,45,5,0,1,1,TRUE,,626,394,TRUE,TRUE,1,,596,760,10946,165,45,45,Right,1.422198315,0.948514517,1.813184623,1.366900288,1.577018348,-0.434540015,3000,Free,"Correct, no change",3,4
4,2489,5339,56.95,67.67,9592,1494,1,1,54,54,1,54,50,4,0,1,4,TRUE,,636,2024,TRUE,TRUE,1,,1045,2018,11107,161,50,50,Left,0.997859352,0.644256582,1.543582253,1.172474,0.837424135,-0.299408454,7000,Free,"Correct, no change",4,10
4,3203,1657,58.02,63.05,1298,2059,1,1,54,54,2,54,50,4,0,2,4,TRUE,,486,1778,TRUE,TRUE,1,,708,2557,11267,160,50,50,Right,1.101522067,0.718584434,1.172878994,0.905137855,0.837424135,0.230723058,5000,Free,"Correct, no change",2,10
4,2093,1916,53.67,42.15,302,3377,1,1,53,53,1,53,50,3,0,1,7,TRUE,,956,3150,TRUE,TRUE,1,,752,2500,11414,147,50,50,Left,0.680089535,0.416410457,-0.50411194,-0.304239948,0.097829922,-0.593430973,7000,Free,"Correct, no change",3,15
4,5058,1007,31.25,59.17,2619,2681,-1,1,50,53,1,53,50,3,1,1,3,TRUE,,666,2370,FALSE,TRUE,1,,970,1610,11527,113,53,50,Left,-1.491983421,-1.141001163,0.861552447,0.680621784,0.097829922,1.608025516,5000,Free,Incorrect to correct,4,11
4,6641,1293,54.62,28.45,687,2584,1,-1,54,50,1,54,50,4,0,2,3,TRUE,,874,1500,TRUE,FALSE,1,,609,949,11639,112,50,54,Right,0.772126525,0.482402475,-1.603383509,-1.096989991,0.837424135,2.783373112,3000,Free,Correct to incorrect,4,8
4,3373,1332,59.55,58.88,1434,1511,1,1,54,54,2,50,54,4,0,2,4,FALSE,,652,1794,FALSE,FALSE,1,,954,2236,11797,158,50,50,Left,1.249750061,0.824866315,0.838283195,0.663840944,0.837424135,0.356944847,5000,Free,"Correct, no change",4,11
4,1836,3538,49.08,49.67,358,1133,1,1,50,50,1,50,47,3,0,2,2,TRUE,,646,550,TRUE,TRUE,1,,704,1804,11945,148,47,47,Right,0.235405554,0.097564813,0.099283841,0.130904601,0.097829922,-0.784248618,3000,Free,"Correct, no change",1,5
4,3801,1391,48.73,63.48,666,1287,-1,1,47,50,1,50,47,3,1,1,4,TRUE,,840,1995,FALSE,TRUE,1,,788,2068,12051,106,50,47,Left,0.201497189,0.073251965,1.207381678,0.93001979,0.097829922,0.674726762,5000,Free,Incorrect to correct,4,10
4,2457,1405,46.13,45.77,1324,1927,1,1,50,50,1,46,50,4,0,2,4,FALSE,,874,1430,FALSE,FALSE,1,,596,2553,12196,145,46,46,Right,-0.05039352,-0.107357768,-0.213647482,-0.094768769,0.837424135,-0.323167849,5000,Free,"Correct, no change",4,10
4,1696,2034,52.52,61.52,377,1166,1,1,50,50,2,46,50,4,0,1,5,FALSE,,830,2739,FALSE,FALSE,1,,666,3292,12352,156,46,46,Left,0.568676337,0.336525383,1.050113629,0.816604456,0.837424135,-0.888195973,7000,Free,"Correct, no change",3,19
4,1823,2006,46.45,33.65,1767,718,1,-1,50,47,1,50,47,3,0,1,5,TRUE,,860,2930,TRUE,FALSE,1,,748,3268,12458,106,47,50,Left,-0.019391586,-0.085128878,-1.186141746,-0.796092165,0.097829922,-0.793900872,7000,Free,Correct to incorrect,3,16
4,2365,2209,24.55,55.18,891,6200,1,1,53,53,2,50,53,3,0,1,4,FALSE,,870,2602,FALSE,FALSE,1,,805,3133,12597,139,50,50,Left,-2.141086401,-1.606418552,0.541399632,0.449740567,0.097829922,-0.391476111,7000,Free,"Correct, no change",4,20
5,1903,1622,43.13,57.68,1138,986,-1,-1,50,50,0,50,52,2,1,1,3,FALSE,,1009,705,TRUE,TRUE,1,,520,1552,12646,49,52,52,Right,-0.341036645,-0.315753614,0.741996634,0.594402984,-0.641764291,-0.734502384,3000,Free,"Incorrect, no change",4,6
5,1329,1272,47.78,68.53,363,1109,1,1,53,53,1,53,50,3,0,3,2,TRUE,,1038,1356,TRUE,TRUE,1,,758,752,12803,157,50,50,Right,0.109460199,0.007259947,1.612587621,1.222237872,0.097829922,-1.16068654,3000,Free,"Correct, no change",2,6
5,3833,2705,47.02,36.12,2281,843,-1,1,50,53,1,50,53,3,1,2,4,FALSE,,720,2422,TRUE,FALSE,1,,884,1724,12897,94,53,50,Left,0.035830608,-0.045533668,-0.987951908,-0.653165697,0.097829922,0.698486157,5000,Free,Incorrect to correct,4,8
5,1661,2054,59.68,42.52,747,750,1,1,54,54,1,54,50,4,0,1,4,TRUE,,768,2027,TRUE,TRUE,1,,863,1756,13047,150,50,50,Left,1.262344596,0.833896801,-0.474423584,-0.282829911,0.837424135,-0.914182812,5000,Free,"Correct, no change",5,10
5,3907,1530,41.27,57.67,821,994,1,1,50,50,2,50,46,4,0,1,2,TRUE,,914,1369,TRUE,TRUE,1,,753,1070,13195,148,46,46,Left,-0.521235383,-0.444959038,0.741194246,0.593824334,0.837424135,0.753429759,3000,Free,"Correct, no change",4,6
5,4208,3012,30.13,45.42,623,1477,1,1,50,50,1,50,47,3,0,1,2,TRUE,,1139,1049,TRUE,TRUE,1,,595,1226,13332,137,47,47,Left,-1.600490188,-1.218802279,-0.241731062,-0.115021507,0.097829922,0.976916573,3000,Free,"Correct, no change",5,6
5,1418,4536,63.63,71,1488,783,1,1,50,50,2,47,50,3,0,1,3,FALSE,,808,1862,FALSE,FALSE,1,,554,1794,13498,166,47,47,Left,1.645024711,1.108284665,1.810777459,1.365164339,0.097829922,-1.094605722,5000,Free,"Correct, no change",3,9
5,1968,5497,42.43,42.15,3326,996,-1,-1,48,48,0,48,50,2,1,2,2,FALSE,,907,1105,TRUE,TRUE,1,,676,1564,13554,56,50,50,Right,-0.408853374,-0.364379311,-0.50411194,-0.304239948,-0.641764291,-0.686241111,3000,Free,"Incorrect, no change",3,8
5,5070,8279,52.23,46.43,1052,926,1,1,53,53,1,50,53,3,0,1,3,FALSE,,706,1406,FALSE,FALSE,1,,916,832,13703,149,50,50,Left,0.540580835,0.316380451,-0.160689873,-0.056577891,0.097829922,1.616935289,3000,Free,"Correct, no change",4,6
5,3783,2131,52.3,47.43,875,1081,1,1,50,50,2,47,50,3,0,1,6,FALSE,,766,2582,FALSE,FALSE,1,,652,3162,13852,149,47,47,Right,0.547362508,0.321243021,-0.080451073,0.001287076,0.097829922,0.661362102,7000,Free,"Correct, no change",3,12
5,3724,2161,49.93,41.7,1098,1027,1,-1,50,48,1,50,48,2,0,1,2,TRUE,,1163,900,TRUE,FALSE,1,,422,1505,13955,103,48,50,Right,0.317754439,0.156610303,-0.5402194,-0.330279183,-0.641764291,0.617555716,3000,Free,Correct to incorrect,4,7
5,7583,983,44.03,60.42,396,883,-1,1,50,52,1,52,50,2,1,2,3,TRUE,,711,1908,FALSE,TRUE,1,,892,1204,14062,107,52,50,Left,-0.253843707,-0.25323486,0.961850948,0.752952992,-0.641764291,3.482790316,7000,Free,Incorrect to correct,4,8
5,1554,2467,53.23,53.63,1543,1966,1,1,53,53,1,53,50,3,0,2,5,TRUE,,771,2190,TRUE,TRUE,1,,834,3785,14214,152,50,50,Left,0.637461877,0.385845733,0.417029491,0.360049869,0.097829922,-0.993628291,7000,Free,"Correct, no change",4,19
5,1866,1894,62.22,49.98,1998,1442,1,1,50,50,2,47,50,3,0,1,4,FALSE,,948,2672,FALSE,FALSE,1,,571,2984,14369,155,47,47,Left,1.508422443,1.010338618,0.124157869,0.148842741,0.097829922,-0.761974185,7000,Free,"Correct, no change",4,21
5,2249,1739,50.5,38.48,1266,1752,-1,1,50,52,0,50,52,2,1,1,4,FALSE,,668,1648,TRUE,FALSE,1,,1016,2308,14462,93,52,50,Left,0.372976633,0.196205514,-0.798588338,-0.516604376,-0.641764291,-0.47760392,5000,Free,Incorrect to correct,4,13
5,1644,4622,44.77,54.12,1887,566,-1,1,47,50,0,47,50,3,1,1,4,FALSE,,820,1694,TRUE,FALSE,1,,674,2568,14566,104,50,47,Right,-0.182151736,-0.201830552,0.456346504,0.388403702,0.097829922,-0.926804991,5000,Free,Incorrect to correct,4,13
5,1678,1677,56.33,67.2,1130,1067,1,1,54,54,1,54,50,4,0,2,2,TRUE,,916,1284,TRUE,TRUE,1,,581,852,14727,161,50,50,Right,0.937793106,0.601188107,1.505870016,1.145277466,0.837424135,-0.901560633,3000,Free,"Correct, no change",4,4
5,5141,2188,62.1,67.62,973,692,1,1,50,50,2,50,46,4,0,1,3,TRUE,,730,2074,TRUE,TRUE,1,,490,1865,14891,164,46,46,Right,1.496796718,1.002002784,1.539570313,1.169580752,0.837424135,1.669651448,5000,Free,"Correct, no change",2,10
5,1760,2378,62.07,47.3,713,1284,1,1,53,53,1,53,50,3,0,2,5,TRUE,,634,2434,TRUE,TRUE,1,,772,3182,15045,154,50,50,Right,1.493890286,0.999918825,-0.090882117,-0.00623537,0.097829922,-0.840677182,7000,Free,"Correct, no change",3,14
5,5044,1755,36.28,32.07,1807,575,1,-1,50,47,2,47,50,3,0,2,5,FALSE,,684,2848,FALSE,TRUE,1,,735,3150,15146,101,47,50,Right,-1.004671781,-0.791590795,-1.312919051,-0.887518812,0.097829922,1.59763078,7000,Free,Correct to incorrect,3,16
5,1490,1643,58.72,61.32,926,1629,-1,-1,50,50,0,50,52,2,1,2,4,FALSE,,758,1966,TRUE,TRUE,1,,735,1144,15185,39,52,52,Right,1.169338796,0.767210131,1.034065868,0.805031462,-0.641764291,-1.041147082,7000,Free,"Incorrect, no change",4,4
6,7519,1800,31.23,33.27,2915,4294,-1,-1,47,47,0,47,50,3,1,1,3,FALSE,,678,1830,TRUE,TRUE,1,,812,2003,15252,67,50,50,Left,-1.493921042,-1.142390469,-1.21663249,-0.818080852,0.097829922,3.435271525,5000,Free,"Incorrect, no change",2,12
6,1734,1962,52.3,59.32,1071,1120,1,1,50,50,1,50,46,4,0,1,7,TRUE,,666,2434,TRUE,TRUE,1,,688,3206,15407,155,46,46,Right,0.547362508,0.321243021,0.873588267,0.689301529,0.837424135,-0.859981691,7000,Free,"Correct, no change",3,11
6,2713,2148,32.93,36.92,778,1132,1,-1,50,46,2,46,50,4,0,1,3,FALSE,,482,1794,FALSE,TRUE,1,,1187,2487,15504,97,46,50,Left,-1.329223271,-1.02429949,-0.923760867,-0.606873724,0.837424135,-0.133092685,5000,Free,Correct to incorrect,4,12
6,2330,2907,55,53.67,845,317,1,1,53,53,1,53,50,3,0,1,4,TRUE,,892,1696,TRUE,TRUE,1,,552,2214,15657,153,50,50,Right,0.808941321,0.508799282,0.420239043,0.362364467,0.097829922,-0.41746295,5000,Free,"Correct, no change",5,10
6,4665,1795,54.3,61.28,2009,648,1,1,53,53,2,53,50,3,0,2,3,TRUE,,1169,1742,TRUE,TRUE,1,,690,2304,15814,157,50,50,Right,0.741124592,0.460173585,1.030856316,0.802716864,0.097829922,1.31623044,5000,Free,"Correct, no change",4,11
6,1969,1592,38.37,39.3,1587,471,1,1,50,50,1,50,48,2,0,1,2,TRUE,,696,1377,TRUE,TRUE,1,,758,834,15952,138,48,48,Right,-0.802190404,-0.646408356,-0.732792522,-0.469155103,-0.641764291,-0.68549863,3000,Free,"Correct, no change",4,6
6,4664,1781,49.77,43.73,679,2145,1,1,50,50,2,50,48,2,0,1,6,TRUE,,662,3059,TRUE,TRUE,1,,993,2832,16097,145,48,48,Left,0.302253472,0.145495858,-0.377334635,-0.212813301,-0.641764291,1.315487959,7000,Free,"Correct, no change",4,16
6,2436,1447,18.53,33.68,2056,1202,-1,1,49,50,0,50,49,1,1,1,7,TRUE,,787,2754,FALSE,TRUE,1,,792,3197,16203,106,50,49,Right,-2.724310273,-2.024599549,-1.183734582,-0.794356216,-1.381358503,-0.338759952,7000,Free,Incorrect to correct,4,16
6,3179,3461,29.85,36.67,689,587,-1,-1,50,50,0,52,50,2,1,1,3,TRUE,,1011,1030,FALSE,FALSE,1,,570,1180,16269,66,52,52,Right,-1.62761688,-1.238252558,-0.943820568,-0.621339965,-0.641764291,0.212903512,3000,Free,"Incorrect, no change",3,6
6,3554,1890,40.07,40.02,1007,361,1,1,53,53,1,53,50,3,0,2,3,TRUE,,760,741,TRUE,TRUE,1,,765,1394,16409,140,50,50,Right,-0.637492633,-0.528317377,-0.675020585,-0.427492327,0.097829922,0.491333928,3000,Free,"Correct, no change",2,6
6,974,1655,49.47,59.58,344,857,1,1,53,53,2,53,50,3,0,2,5,TRUE,,1033,1638,TRUE,TRUE,1,,570,2367,16562,153,50,50,Right,0.27318916,0.124656273,0.894450355,0.70434642,0.097829922,-1.424267334,5000,Free,"Correct, no change",4,10
6,2803,1787,55.1,38.52,684,1002,1,1,50,50,1,50,48,2,0,2,3,TRUE,,816,1670,TRUE,TRUE,1,,687,2518,16708,146,48,48,Right,0.818629425,0.51574581,-0.795378786,-0.514289777,-0.641764291,-0.066269385,5000,Free,"Correct, no change",4,12
6,3454,1626,41.63,40.53,2371,927,1,-1,50,48,2,48,50,2,0,2,2,FALSE,,766,542,FALSE,TRUE,1,,733,1660,16807,99,48,50,Right,-0.486358208,-0.419951537,-0.634098797,-0.397981194,-0.641764291,0.417085817,3000,Free,Correct to incorrect,4,7
6,2526,1723,48.42,44.23,1210,520,-1,1,50,51,0,50,51,1,1,2,5,FALSE,,858,1403,TRUE,FALSE,1,,674,2490,16904,97,51,50,Right,0.171464066,0.051717727,-0.337215235,-0.183880818,-1.381358503,-0.271936653,5000,Free,Incorrect to correct,4,9
6,2770,1426,39.13,36.73,591,1859,1,-1,52,50,1,50,52,2,0,1,7,FALSE,,976,2358,FALSE,TRUE,1,,574,3423,17004,100,50,52,Right,-0.728560812,-0.593614742,-0.93900624,-0.617868067,-0.641764291,-0.090771262,7000,Free,Correct to incorrect,4,14
6,1887,1337,55.62,53.05,1618,454,-1,-1,50,50,1,50,52,2,1,2,5,FALSE,,708,2946,TRUE,TRUE,1,,814,2888,17049,45,52,52,Right,0.869007567,0.551867757,0.370490987,0.326488188,-0.641764291,-0.746382081,7000,Free,"Incorrect, no change",3,15
6,3275,902,40.58,67.82,819,1388,1,1,53,53,1,53,50,3,0,1,6,TRUE,,466,2795,TRUE,TRUE,1,,1183,2328,17202,153,50,50,Left,-0.588083302,-0.492890083,1.555618073,1.181153745,0.097829922,0.284181698,7000,Free,"Correct, no change",2,13
6,2211,1376,29.6,25.92,943,2926,-1,-1,47,47,1,50,47,3,1,1,2,TRUE,,576,907,FALSE,FALSE,1,,1108,996,17274,72,50,50,Left,-1.65183714,-1.255618878,-1.806387675,-1.243388357,0.097829922,-0.505818202,3000,Free,"Incorrect, no change",5,6
6,1778,1984,31.15,27.18,969,967,1,1,50,50,1,50,46,4,0,1,3,TRUE,,738,1260,TRUE,TRUE,1,,904,1024,17402,128,46,46,Left,-1.501671526,-1.147947691,-1.705286786,-1.170478499,0.837424135,-0.827312522,3000,Free,"Correct, no change",3,4
6,4828,2635,49.63,58.77,452,765,1,1,50,50,2,46,50,4,0,2,3,FALSE,,563,1066,FALSE,FALSE,1,,1082,1376,17555,153,46,46,Left,0.288690127,0.135770718,0.829456927,0.657475797,0.837424135,1.437254861,5000,Free,"Correct, no change",3,6
6,1709,822,32.47,57.85,3304,1648,-1,1,50,53,0,53,50,3,1,2,5,TRUE,,441,2424,FALSE,TRUE,1,,1142,1484,17666,111,53,50,Left,-1.37378855,-1.056253519,0.75563723,0.604240028,0.097829922,-0.878543719,7000,Free,Incorrect to correct,3,7
7,1311,1572,42.08,54,791,1200,1,-1,50,46,1,46,50,4,0,2,3,FALSE,,750,1152,FALSE,TRUE,1,,882,1027,17760,94,46,50,Left,-0.442761739,-0.38869216,0.446717848,0.381459906,0.837424135,-1.1740512,3000,Free,Correct to incorrect,2,5
7,3739,2357,29.58,37.67,1091,1567,1,1,50,50,2,50,46,4,0,1,5,TRUE,,670,1912,TRUE,TRUE,1,,784,2352,17892,132,46,46,Right,-1.653774761,-1.257008184,-0.863581767,-0.563474999,0.837424135,0.628692933,5000,Free,"Correct, no change",2,11
7,3220,4426,34.8,42.07,998,668,1,1,53,53,1,50,53,3,0,1,4,FALSE,,884,1242,FALSE,FALSE,1,,639,2413,18030,138,50,50,Left,-1.148055723,-0.894399412,-0.510531044,-0.308869146,0.097829922,0.243345237,5000,Free,"Correct, no change",5,6
7,1325,1538,53.37,70.27,1325,1135,1,1,50,50,2,50,47,3,0,2,2,TRUE,,1012,1319,TRUE,TRUE,1,,596,592,18191,161,47,47,Left,0.651025223,0.395570873,1.752203134,1.322922914,0.097829922,-1.163656465,7000,Free,"Correct, no change",4,4
7,3436,3384,31.22,40.4,1986,916,1,1,52,52,1,50,52,2,0,1,5,FALSE,,800,1479,FALSE,FALSE,1,,804,2786,18326,135,50,50,Right,-1.494889853,-1.143085122,-0.644529841,-0.40550364,-0.641764291,0.403721157,5000,Free,"Correct, no change",4,11
7,1835,3644,39.97,39.93,583,941,-1,1,50,52,1,52,50,2,1,1,4,TRUE,,492,2560,FALSE,TRUE,1,,1014,1524,18425,99,52,50,Left,-0.647180737,-0.535263905,-0.682242077,-0.432700174,-0.641764291,-0.784991099,5000,Free,Incorrect to correct,3,11
7,1497,2483,49.3,45.7,1020,2111,1,1,53,53,1,53,50,3,0,1,2,TRUE,,1080,1484,TRUE,TRUE,1,,456,916,18571,146,50,50,Right,0.256719383,0.112847175,-0.219264198,-0.098819317,0.097829922,-1.035949714,3000,Free,"Correct, no change",3,6
7,1781,1976,51.33,55.47,2201,658,1,1,53,53,2,50,53,3,0,1,4,FALSE,,768,1144,FALSE,FALSE,1,,796,1276,18723,152,50,50,Right,0.453387898,0.253861698,0.564668885,0.466521407,0.097829922,-0.825085079,3000,Free,"Correct, no change",5,6
7,1587,2575,48.37,38.62,672,1143,1,1,52,52,1,52,50,2,0,1,7,TRUE,,832,2932,TRUE,TRUE,1,,726,3002,18866,143,50,50,Right,0.166620014,0.048244463,-0.787354906,-0.50850328,-0.641764291,-0.969126414,7000,Free,"Correct, no change",4,15
7,2982,1951,44.43,28.1,1647,555,1,-1,52,50,2,50,52,2,0,1,2,FALSE,,534,1404,FALSE,TRUE,1,,1103,940,18973,107,50,52,Left,-0.215091291,-0.225448748,-1.631467089,-1.11724273,-0.641764291,0.066634733,3000,Free,Correct to incorrect,5,6
7,2562,1896,57.08,31.32,692,362,1,-1,51,50,1,50,51,1,0,1,2,FALSE,,760,1158,FALSE,TRUE,1,,734,882,19085,112,50,51,Left,1.010453888,0.653287069,-1.373098151,-0.930917537,-1.381358503,-0.245207333,3000,Free,Correct to incorrect,3,6
7,3103,2318,50.72,54.93,888,1080,1,1,50,50,2,49,50,1,0,2,2,FALSE,,826,1292,FALSE,FALSE,1,,778,1154,19237,152,49,49,Left,0.394290462,0.211487876,0.521339932,0.435274325,-1.381358503,0.156474947,3000,Free,"Correct, no change",3,6
7,4327,1305,50.97,35.28,1319,309,-1,-1,50,50,0,50,50,0,1,2,3,FALSE,,758,1416,FALSE,TRUE,1,,728,862,19293,56,50,50,Left,0.418510723,0.228854196,-1.055352501,-0.701772269,-2.120952716,1.065271825,3000,Free,"Incorrect, no change",3,5
7,1466,2123,37.85,36.73,1012,1983,-1,1,50,51,0,51,50,1,1,1,5,TRUE,,934,2610,FALSE,TRUE,1,,785,3024,19392,99,51,50,Left,-0.852568546,-0.682530303,-0.93900624,-0.617868067,-1.381358503,-1.058966628,7000,Free,Incorrect to correct,3,15
7,4367,2851,61.72,50.82,1427,836,-1,-1,48,48,0,50,48,2,1,1,2,TRUE,,436,712,FALSE,FALSE,1,,993,1498,19435,43,50,50,Left,1.459981922,0.975605977,0.191558462,0.197449313,-0.641764291,1.094971069,5000,Free,"Incorrect, no change",5,4
7,1528,1816,56.82,50.27,1784,2048,1,1,53,53,1,53,50,3,0,2,2,TRUE,,998,958,TRUE,TRUE,1,,416,1366,19588,153,50,50,Right,0.985264817,0.635226095,0.147427121,0.165623581,0.097829922,-1.0129328,3000,Free,"Correct, no change",4,7
7,3195,1709,50.75,38.95,606,917,-1,1,50,53,1,50,53,3,1,3,7,FALSE,,630,3207,TRUE,FALSE,1,,732,2568,19681,93,53,50,Right,0.397196893,0.213571834,-0.760876102,-0.489407841,0.097829922,0.224783209,7000,Free,Incorrect to correct,3,15
7,2042,1425,52.3,37.87,895,608,-1,1,46,50,0,50,46,4,1,2,6,TRUE,,808,2188,FALSE,TRUE,1,,754,3190,19772,91,50,46,Left,0.547362508,0.321243021,-0.847534007,-0.551902005,0.837424135,-0.631297509,7000,Free,Incorrect to correct,3,15
7,2747,1755,55.07,40.33,1188,1631,1,1,55,55,1,55,50,5,0,1,6,TRUE,,917,2904,TRUE,TRUE,1,,614,2863,19919,147,50,50,Right,0.815722994,0.513661852,-0.650146557,-0.409554187,1.577018348,-0.107848327,7000,Free,"Correct, no change",5,15
7,1843,1560,51.47,70.38,981,904,1,1,50,50,2,50,45,5,0,1,1,TRUE,,668,2158,TRUE,TRUE,1,,802,1320,20079,160,45,45,Right,0.466951243,0.263586837,1.761029402,1.32928806,1.577018348,-0.77905125,7000,Free,"Correct, no change",2,8
7,976,3022,51.57,47.77,1038,1047,-1,1,46,50,0,50,46,4,1,2,4,TRUE,,816,2453,FALSE,TRUE,1,,628,1986,20176,97,50,46,Left,0.476639348,0.270533365,-0.05316988,0.020961164,0.837424135,-1.422782372,5000,Free,Incorrect to correct,3,11
8,2950,1694,26.33,50.65,1792,1276,1,-1,50,45,1,45,50,5,0,2,5,FALSE,,676,2563,FALSE,TRUE,1,,714,1528,20263,87,45,50,Right,-1.968638147,-1.48277035,0.177917865,0.187612268,1.577018348,0.042875338,5000,Free,Correct to incorrect,3,10
8,1367,1463,59.08,58.27,1496,552,1,1,55,55,2,55,50,5,0,1,2,TRUE,,720,970,TRUE,TRUE,1,,832,626,20421,158,50,50,Right,1.204215971,0.792217632,0.789337526,0.628543314,1.577018348,-1.132472258,3000,Free,"Correct, no change",4,4
8,4828,1909,60.15,68.23,1094,1191,1,1,50,50,1,50,46,4,0,2,5,TRUE,,1005,2190,TRUE,TRUE,1,,602,1994,20585,164,46,46,Left,1.307878686,0.866545484,1.588515981,1.204878382,0.837424135,1.437254861,7000,Free,"Correct, no change",3,9
8,4286,2082,24.85,28.3,824,1752,1,1,54,54,2,50,54,4,0,2,2,FALSE,,562,834,FALSE,FALSE,1,,852,1876,20711,126,50,50,Right,-2.112022089,-1.585578967,-1.615419329,-1.105669736,0.837424135,1.0348301,3000,Free,"Correct, no change",2,8
8,1447,1863,66.35,69.25,1020,1034,1,1,50,50,1,50,47,3,0,1,2,TRUE,,854,1091,TRUE,TRUE,1,,516,1070,20878,167,47,47,Right,1.908541145,1.297230232,1.670359558,1.263900648,0.097829922,-1.073073769,3000,Free,"Correct, no change",3,6
8,2238,1703,28.15,40.1,699,914,-1,1,47,50,1,50,47,3,1,1,2,TRUE,,1036,2265,FALSE,TRUE,1,,536,2034,20983,105,50,47,Right,-1.792314651,-1.356343537,-0.668601481,-0.42286313,0.097829922,-0.485771212,5000,Free,Incorrect to correct,4,13
8,2319,1531,50.82,39.95,1027,1520,-1,1,50,54,0,50,54,4,1,1,5,FALSE,,922,2107,TRUE,FALSE,1,,602,2054,21076,93,54,50,Right,0.403978566,0.218434404,-0.680637301,-0.431542875,0.837424135,-0.425630242,5000,Free,Incorrect to correct,4,9
8,1355,3033,44.95,29.97,1060,302,1,1,50,50,1,45,50,5,0,1,3,FALSE,,464,1556,FALSE,FALSE,1,,1198,2581,21212,136,45,45,Left,-0.164713149,-0.189326801,-1.481420532,-1.009035242,1.577018348,-1.141382031,5000,Free,"Correct, no change",3,11
8,3491,1180,58.32,67.92,382,989,1,1,55,55,2,55,50,5,0,1,4,TRUE,,604,942,TRUE,TRUE,1,,1001,1140,21374,162,50,50,Left,1.13058638,0.739424018,1.563641953,1.186940242,1.577018348,0.444557618,3000,Free,"Correct, no change",4,4
8,1524,5059,59.75,35.83,2744,1144,1,1,50,50,1,50,46,4,0,2,3,TRUE,,537,1298,TRUE,TRUE,1,,1078,1070,21520,146,46,46,Left,1.269126269,0.838759371,-1.01122116,-0.669946537,0.837424135,-1.015902724,3000,Free,"Correct, no change",3,5
8,1482,1748,55.6,38.37,1083,594,1,1,50,50,2,46,50,4,0,1,6,FALSE,,414,1778,FALSE,FALSE,1,,1124,3030,21666,146,46,46,Left,0.867069946,0.550478451,-0.807414606,-0.522969522,0.837424135,-1.047086931,7000,Free,"Correct, no change",3,10
8,1891,1503,59.92,36.38,941,2297,-1,1,50,53,0,50,53,3,1,1,4,FALSE,,986,1735,TRUE,FALSE,1,,466,1634,21754,88,53,50,Right,1.285596046,0.850568469,-0.96708982,-0.638120806,0.097829922,-0.743412157,5000,Free,Incorrect to correct,3,9
8,2685,1253,40.78,57.42,291,1311,-1,1,46,50,0,50,46,4,1,1,4,TRUE,,1236,1970,FALSE,TRUE,1,,426,1496,21861,107,50,46,Right,-0.568707093,-0.478997027,0.721134546,0.579358092,0.837424135,-0.153882156,5000,Free,Incorrect to correct,2,7
8,2765,2309,57.58,17.4,1629,675,-1,1,45,50,0,45,50,5,1,1,2,FALSE,,838,1218,TRUE,FALSE,1,,614,1094,21940,79,50,45,Right,1.058894409,0.688019709,-2.490022256,-1.736397873,1.577018348,-0.094483667,3000,Free,Incorrect to correct,3,6
8,1135,1511,63.1,72.6,1450,1247,1,1,56,56,1,56,50,6,0,1,3,TRUE,,564,1307,TRUE,TRUE,1,,618,1278,22107,167,50,50,Right,1.593677759,1.071468066,1.93915954,1.457748286,2.316612561,-1.304727875,3000,Free,"Correct, no change",2,5
8,2544,1855,34.37,28.1,1368,1901,1,1,50,50,2,50,44,6,0,1,7,TRUE,,480,2226,TRUE,TRUE,1,,1158,3440,22238,131,44,44,Left,-1.189714571,-0.924269484,-1.631467089,-1.11724273,2.316612561,-0.258571993,7000,Free,"Correct, no change",5,13
8,1519,2854,44.6,33.32,807,565,1,1,50,50,1,45,50,5,0,1,4,FALSE,,692,1941,FALSE,FALSE,1,,942,1808,22376,138,45,45,Left,-0.198621514,-0.21363965,-1.21262055,-0.815187604,1.577018348,-1.01961513,5000,Free,"Correct, no change",4,8
8,2992,1502,56.05,35.92,771,942,1,-1,55,50,2,50,55,5,0,2,7,FALSE,,876,3693,FALSE,TRUE,1,,696,2224,22486,110,50,55,Left,0.910666415,0.581737828,-1.003999668,-0.66473869,1.577018348,0.074059544,7000,Free,Correct to incorrect,3,14
8,4800,5578,44.62,56.97,1521,426,1,1,54,54,1,54,50,4,0,1,6,TRUE,,602,2607,TRUE,TRUE,1,,610,2954,22636,150,50,50,Right,-0.196683893,-0.212250344,0.685027086,0.553318857,0.837424135,1.41646539,7000,Free,"Correct, no change",3,10
8,3261,1436,33.53,35.63,1363,726,-1,-1,46,46,1,50,46,4,1,2,7,TRUE,,684,2645,FALSE,FALSE,1,,892,3358,22701,65,50,50,Left,-1.271094646,-0.98262032,-1.02726892,-0.681519531,0.837424135,0.273786963,7000,Free,"Incorrect, no change",4,13
8,2372,1338,58.03,65.72,588,1176,1,1,55,55,1,55,50,5,0,2,6,TRUE,,844,1760,TRUE,TRUE,1,,570,2050,22862,161,50,50,Right,1.102490878,0.719279086,1.387116591,1.059637315,1.577018348,-0.386278743,5000,Free,"Correct, no change",3,8
9,1855,4417,59.65,62.12,770,685,1,1,55,55,2,55,50,5,0,1,6,TRUE,,686,2930,TRUE,TRUE,1,,844,2954,23022,160,50,50,Left,1.259438165,0.831812843,1.098256909,0.851323436,1.577018348,-0.770141477,7000,Free,"Correct, no change",4,12
0,1256,1569,68.45,72.38,875,973,-1,-1,49,49,0,50,49,1,1,1,4,TRUE,,795,1246,FALSE,FALSE,2,,852,866,28,28,50,50,Right,0.228488337,-0.073695005,-0.008511496,-0.360759222,-1.61813798,-0.4554129,3000,Free,"Incorrect, no change",2,4
0,1500,1402,79.87,95.38,503,1072,1,1,50,50,1,48,50,2,0,1,4,FALSE,,813,1190,FALSE,FALSE,2,,844,1871,214,186,48,48,Right,0.806634733,0.404090091,1.106602276,0.705317608,-0.718643632,0.082323204,5000,Free,"Correct, no change",2,3
0,1405,1219,65.1,85.13,774,3198,-1,1,48,50,1,48,50,2,1,2,7,FALSE,,618,2256,TRUE,FALSE,2,,1002,1517,323,109,50,48,Right,0.058891978,-0.213850878,0.609649399,0.230218151,-0.718643632,-0.127041262,5000,Free,Incorrect to correct,2,4
0,1032,1571,70.45,57.08,403,799,1,-1,53,50,1,53,50,3,0,1,4,TRUE,,1168,1006,TRUE,FALSE,2,,484,1046,429,106,50,53,Right,0.329739895,0.009980143,-0.750304571,-1.06993207,0.180850715,-0.949072275,3000,Free,Correct to incorrect,2,2
0,1346,1328,68.75,78.58,509,418,1,1,53,53,2,53,50,3,0,1,3,TRUE,,946,854,TRUE,TRUE,2,,753,1182,602,173,50,50,Left,0.243676071,-0.061143733,0.29208439,-0.07338199,0.180850715,-0.257067616,3000,Free,"Correct, no change",1,3
0,1370,1455,93.92,88.88,623,826,1,1,52,52,1,50,52,2,0,2,8,FALSE,,1007,1444,FALSE,FALSE,2,,596,1872,792,190,50,50,Left,1.517926928,0.991908007,0.791461427,0.404035026,-0.718643632,-0.20417554,7000,Free,"Correct, no change",3,3
0,1389,1542,85.6,71.17,654,436,1,1,52,52,2,52,50,2,0,1,7,TRUE,,726,1684,TRUE,TRUE,2,,874,2176,969,177,50,50,Right,1.096720447,0.643819391,-0.067176177,-0.416844134,-0.718643632,-0.162302646,5000,Free,"Correct, no change",2,1
0,1267,1506,71.72,86.18,497,11768,1,-1,50,49,1,50,49,1,0,3,6,TRUE,,558,1502,TRUE,FALSE,2,,1030,2005,1060,91,49,50,Left,0.394034634,0.063113862,0.660556767,0.278886876,-1.61813798,-0.431170699,5000,Free,Correct to incorrect,1,6
0,1152,1822,64.98,64.68,813,1315,-1,-1,50,50,1,50,51,1,1,1,5,FALSE,,805,2426,TRUE,TRUE,2,,888,2126,1094,34,51,51,Right,0.052816884,-0.218871387,-0.381832194,-0.717663205,-1.61813798,-0.684611896,7000,Free,"Incorrect, no change",2,7
0,1429,1117,85.75,93.92,806,1228,1,1,50,50,1,48,50,2,0,1,5,FALSE,,888,1922,FALSE,FALSE,2,,759,2818,1282,188,48,48,Left,1.104314313,0.650095027,1.035816793,0.637644905,-0.718643632,-0.074149187,7000,Free,"Correct, no change",3,9
0,1254,2371,81.87,80.28,737,2517,1,1,50,50,2,48,50,2,0,1,8,FALSE,,842,2432,FALSE,FALSE,2,,789,3000,1462,180,48,48,Left,0.907886291,0.487765239,0.374505843,0.005414993,-0.718643632,-0.459820573,7000,Free,"Correct, no change",0,10
0,1502,1515,83.73,76.03,1093,2720,1,-1,50,49,1,49,50,1,0,1,1,FALSE,,920,653,FALSE,TRUE,2,,809,816,1564,102,49,50,Left,1.00205024,0.565583127,0.168452211,-0.191577464,-1.61813798,0.086730877,3000,Free,Correct to incorrect,1,3
0,1298,1337,85.3,87.28,1807,1092,1,1,50,50,2,49,50,1,0,1,6,FALSE,,944,1366,FALSE,FALSE,2,,768,2272,1749,185,49,49,Left,1.081532713,0.631268118,0.713888295,0.329873159,-1.61813798,-0.362851767,7000,Free,"Correct, no change",2,6
0,1397,1642,76.72,55.97,472,655,-1,-1,50,50,0,50,50,0,1,1,4,FALSE,,868,914,TRUE,TRUE,2,,772,1077,1782,33,50,50,Left,0.647163529,0.272301733,-0.804120931,-1.121381865,-2.517632327,-0.144671954,3000,Free,"Incorrect, no change",2,2
0,1036,1345,75.03,70.05,491,515,1,-1,51,50,1,50,51,1,0,1,7,FALSE,,796,1780,FALSE,TRUE,2,,860,1754,1883,101,50,51,Right,0.561605963,0.201596232,-0.12147737,-0.46875744,-1.61813798,-0.940256929,5000,Free,Correct to incorrect,2,6
0,1225,1173,57.2,57.75,397,2156,-1,-1,50,50,1,50,51,1,1,1,6,FALSE,,784,1914,TRUE,TRUE,2,,858,1887,1925,42,51,51,Right,-0.341051676,-0.544367714,-0.717820822,-1.038876789,-1.61813798,-0.523731831,5000,Free,"Incorrect, no change",3,4
0,1322,1495,24.72,40.88,910,5231,-1,1,50,52,0,50,52,2,1,1,9,FALSE,,777,2126,TRUE,FALSE,2,,888,3048,2032,107,52,50,Right,-1.985376977,-1.90325212,-1.535732532,-1.820820968,-0.718643632,-0.309959692,7000,Free,Incorrect to correct,3,5
0,1220,1368,79.77,81.32,10914,1009,1,1,53,53,1,50,53,3,0,1,3,FALSE,,962,1324,FALSE,FALSE,2,,731,620,2211,179,50,50,Left,0.801572155,0.399906334,0.424928379,0.053620207,0.180850715,-0.534751014,3000,Free,"Correct, no change",2,4
0,1339,1409,56.98,29.1,1014,1097,1,1,53,53,2,50,53,3,0,1,9,FALSE,,778,2688,FALSE,FALSE,2,,866,2602,2353,142,50,50,Right,-0.352189348,-0.55357198,-2.106864717,-2.36683771,0.180850715,-0.272494471,7000,Free,"Correct, no change",3,8
0,1045,1432,87.75,66.5,792,843,1,1,50,50,1,48,50,2,0,1,3,FALSE,,938,940,FALSE,FALSE,2,,702,1046,2529,176,48,48,Left,1.205565871,0.733770175,-0.293592756,-0.633304081,-0.718643632,-0.9204224,3000,Free,"Correct, no change",1,1
1,1777,1510,72.15,56.7,705,2844,-1,-1,48,48,1,50,48,2,1,1,5,TRUE,,904,2044,FALSE,FALSE,2,,767,1983,2563,34,50,50,Left,0.415803719,0.081104019,-0.76872819,-1.087545514,-0.718643632,0.692785913,5000,Free,"Incorrect, no change",2,9
1,2407,1512,59.25,55.83,1032,890,1,1,53,53,1,53,50,3,0,1,4,TRUE,,816,836,TRUE,TRUE,2,,822,1429,2719,156,50,50,Right,-0.237268829,-0.458600687,-0.81090858,-1.127871028,0.180850715,2.081202905,3000,Free,"Correct, no change",2,3
1,932,1583,83.33,100.73,515,799,1,1,50,50,2,47,50,3,0,1,4,FALSE,,932,1032,FALSE,FALSE,2,,734,986,2910,191,47,47,Left,0.981799928,0.548848097,1.365987436,0.953296349,0.180850715,-1.169455924,3000,Free,"Correct, no change",2,2
1,1189,1462,41.05,64.75,755,387,1,1,50,50,1,50,48,2,0,1,3,TRUE,,792,841,TRUE,TRUE,2,,888,996,3062,152,48,48,Right,-1.158658007,-1.220044535,-0.37843837,-0.714418623,-0.718643632,-0.603069945,3000,Free,"Correct, no change",2,4
1,1484,1951,60.93,28.35,796,973,1,-1,52,50,2,50,52,2,0,1,7,FALSE,,797,2698,FALSE,TRUE,2,,928,2952,3177,115,50,52,Right,-0.152217521,-0.388313562,-2.143227122,-2.401601085,-0.718643632,0.047061821,7000,Free,Correct to incorrect,1,9
1,1428,1595,33.02,34,452,1403,-1,-1,50,50,0,50,51,1,1,1,7,FALSE,,916,2672,TRUE,TRUE,2,,789,2689,3243,66,51,51,Left,-1.565183012,-1.556000255,-1.869297,-2.139716994,-1.61813798,-0.076353023,7000,Free,"Incorrect, no change",1,6
1,1470,1631,60.98,57.62,454,1208,-1,1,50,52,0,52,50,2,1,1,8,TRUE,,812,2560,FALSE,TRUE,2,,904,2772,3340,97,52,50,Right,-0.149686232,-0.386221684,-0.724123639,-1.04490244,-0.718643632,0.01620811,7000,Free,Incorrect to correct,1,6
1,1879,1364,59.27,75.12,584,480,1,1,50,50,1,47,50,3,0,0,3,FALSE,,632,1005,FALSE,FALSE,2,,722,1214,3506,166,47,47,Right,-0.236256314,-0.457763935,0.124332492,-0.233757026,0.180850715,0.917577236,3000,Free,"Correct, no change",1,3
1,1113,1729,64.57,48.7,533,1208,-1,-1,50,50,1,50,53,3,1,1,8,FALSE,,793,1362,TRUE,TRUE,2,,866,2309,3548,42,53,53,Right,0.032060315,-0.236024793,-1.15659385,-1.458354846,0.180850715,-0.770561519,5000,Free,"Incorrect, no change",2,3
1,1031,2076,86.47,87.87,392,1258,1,1,50,50,1,46,50,4,0,1,6,FALSE,,918,2552,FALSE,FALSE,2,,586,2586,3734,186,46,46,Left,1.140764874,0.68021808,0.742493388,0.357220347,1.080345063,-0.951276111,7000,Free,"Correct, no change",2,2
1,1131,1199,56.57,90.13,560,411,1,1,50,50,2,50,46,4,0,1,2,TRUE,,588,1283,TRUE,TRUE,2,,892,550,3907,173,46,46,Right,-0.372945917,-0.570725385,0.852065436,0.461973984,1.080345063,-0.730892462,3000,Free,"Correct, no change",2,2
1,1479,1422,68.07,33.83,501,453,-1,1,50,53,0,53,50,3,1,1,4,TRUE,,970,1640,FALSE,TRUE,2,,768,1034,3988,81,53,50,Left,0.209250541,-0.089593283,-1.877539145,-2.147596692,0.180850715,0.036042638,3000,Free,Incorrect to correct,2,2
1,1890,1223,68.85,61.37,420,621,-1,1,50,54,0,54,50,4,1,1,8,TRUE,,920,3326,FALSE,TRUE,2,,761,2138,4083,95,54,50,Left,0.248738649,-0.056959976,-0.542311611,-0.871085566,1.080345063,0.941819437,7000,Free,Incorrect to correct,2,6
1,931,1888,88.87,101.25,634,1497,1,1,55,55,1,55,50,5,0,1,4,TRUE,,462,1504,TRUE,TRUE,2,,888,1371,4277,194,50,50,Right,1.262266744,0.780628258,1.391198704,0.977398956,1.97983941,-1.171659761,5000,Free,"Correct, no change",2,2
1,1410,1514,91.62,86.17,649,494,1,1,50,50,2,45,50,5,0,1,5,FALSE,,976,1792,FALSE,FALSE,2,,789,1933,4465,188,45,45,Left,1.401487636,0.895681587,0.660071935,0.278423364,1.97983941,-0.11602208,5000,Free,"Correct, no change",0,2
1,1557,1436,48.83,59.8,772,893,1,1,50,50,1,46,50,4,0,1,6,FALSE,,827,1762,FALSE,FALSE,2,,880,2321,4618,153,46,46,Right,-0.764789446,-0.894548209,-0.618430247,-0.943856897,1.080345063,0.207941885,5000,Free,"Correct, no change",1,5
1,1024,1273,74.87,68.37,372,938,1,1,50,50,2,46,50,4,0,1,6,FALSE,,780,1700,FALSE,FALSE,2,,870,2490,4789,171,46,46,Right,0.553505838,0.194902221,-0.202929158,-0.5466274,1.080345063,-0.966702967,5000,Free,"Correct, no change",3,4
1,1269,1909,67.7,73.88,585,1803,1,1,53,53,1,53,50,3,0,1,8,TRUE,,898,2608,TRUE,TRUE,2,,590,2204,4958,169,50,50,Left,0.190519003,-0.105073186,0.064213315,-0.291232472,0.180850715,-0.426763026,7000,Free,"Correct, no change",3,4
1,1188,2249,56.43,74.98,747,711,1,1,53,53,2,53,50,3,0,1,4,TRUE,,788,2486,TRUE,TRUE,2,,906,1693,5123,165,50,50,Right,-0.380033526,-0.576582646,0.117544843,-0.240246189,0.180850715,-0.605273782,7000,Free,"Correct, no change",2,5
1,1546,1225,69.82,86.15,379,838,1,1,50,50,1,48,50,2,0,1,7,FALSE,,795,2417,FALSE,FALSE,2,,942,1998,5300,177,48,48,Right,0.297845654,-0.016377529,0.659102271,0.277496341,-0.718643632,0.183699683,5000,Free,"Correct, no change",2,4
1,1173,1656,84.25,83.35,511,710,-1,-1,50,50,1,52,50,2,1,1,5,TRUE,,768,1388,FALSE,FALSE,2,,884,2648,5315,15,52,52,Right,1.028375645,0.587338666,0.52334929,0.147713075,-0.718643632,-0.638331329,5000,Free,"Incorrect, no change",3,3
2,1482,1569,23.82,81.08,456,1046,1,1,53,53,1,50,53,3,0,1,3,FALSE,,882,1176,FALSE,FALSE,2,,811,994,5466,151,50,50,Left,-2.030940178,-1.940905937,0.413292409,0.042495927,0.180850715,0.042654148,3000,Free,"Correct, no change",0,2
2,1537,1394,71.25,96.17,482,671,1,1,50,50,2,50,47,3,0,1,4,TRUE,,918,796,TRUE,TRUE,2,,793,1176,5649,183,47,47,Left,0.370240518,0.043450202,1.14490401,0.74193503,0.180850715,0.163865155,3000,Free,"Correct, no change",1,1
2,1482,1449,58.78,40.68,746,789,1,1,52,52,1,52,50,2,0,1,7,TRUE,,806,2078,TRUE,TRUE,2,,858,2122,5798,149,50,50,Right,-0.261062946,-0.478264347,-1.545429174,-1.830091201,-0.718643632,0.042654148,5000,Free,"Correct, no change",2,3
2,1453,1475,82.23,75.52,970,730,-1,-1,50,50,1,52,50,2,1,1,3,TRUE,,964,1253,FALSE,FALSE,2,,764,1102,5818,20,52,52,Left,0.926111571,0.502826766,0.143725775,-0.215216559,-0.718643632,-0.021257111,3000,Free,"Incorrect, no change",1,1
2,1117,1128,66.22,84.97,473,599,1,1,50,50,1,50,47,3,0,1,5,TRUE,,786,2452,TRUE,TRUE,2,,916,2058,5993,175,47,47,Right,0.11559285,-0.166992795,0.601892086,0.222801964,0.180850715,-0.761746173,7000,Free,"Correct, no change",1,6
2,1511,1418,79.28,84.02,879,696,-1,-1,50,50,1,53,50,3,1,1,4,TRUE,,980,1242,FALSE,FALSE,2,,774,984,6010,17,53,53,Left,0.776765523,0.379405922,0.555833039,0.178768356,0.180850715,0.106565406,3000,Free,"Incorrect, no change",1,3
2,1705,1609,66.22,69.32,800,919,1,1,50,50,1,46,50,4,0,1,6,FALSE,,980,2424,FALSE,FALSE,2,,784,1600,6177,167,46,46,Left,0.11559285,-0.166992795,-0.156870111,-0.502593792,1.080345063,0.534109686,5000,Free,"Correct, no change",0,2
2,1278,2066,35.28,83.22,455,924,1,1,54,54,2,50,54,4,0,1,5,FALSE,,940,1799,FALSE,FALSE,2,,778,2680,6335,158,50,50,Left,-1.450768751,-1.461447338,0.517046473,0.141687423,1.080345063,-0.406928497,7000,Free,"Correct, no change",1,3
2,1363,1247,57.6,70.48,585,437,-1,-1,50,50,0,53,50,3,1,1,5,TRUE,,910,2224,FALSE,FALSE,2,,775,1965,6370,35,53,53,Left,-0.320801365,-0.527632684,-0.100629591,-0.448826439,0.180850715,-0.219602395,5000,Free,"Incorrect, no change",1,3
2,1299,1885,71.43,73.6,343,395,1,1,54,54,1,50,54,4,0,1,5,FALSE,,912,1616,FALSE,FALSE,2,,700,2128,6541,171,50,50,Left,0.379353158,0.050980966,0.050638017,-0.304210799,1.080345063,-0.360647931,5000,Free,"Correct, no change",2,6
2,1578,1360,54.98,65.23,665,1052,1,1,50,50,2,46,50,4,0,1,11,FALSE,,910,2754,FALSE,FALSE,2,,756,2727,6700,159,46,46,Left,-0.453440906,-0.637247128,-0.35516643,-0.692170063,1.080345063,0.254222451,7000,Free,"Correct, no change",2,3
2,1723,1170,57.05,78.85,647,500,1,1,53,53,1,50,53,3,0,1,3,FALSE,,694,871,FALSE,FALSE,2,,934,1408,6867,167,50,50,Right,-0.348645543,-0.55064335,0.305174856,-0.060867175,0.180850715,0.573778743,3000,Free,"Correct, no change",2,3
2,2687,1531,71.35,76.12,468,452,1,1,53,53,2,50,53,3,0,1,6,FALSE,,827,1230,FALSE,FALSE,2,,932,2726,7040,173,50,50,Right,0.375303096,0.04763396,0.1728157,-0.187405859,0.180850715,2.698277123,7000,Free,"Correct, no change",1,4
2,948,1336,95.5,87.63,844,420,1,1,50,50,1,48,50,2,0,1,6,FALSE,,968,2208,FALSE,FALSE,2,,584,1705,7230,190,48,48,Left,1.597915658,1.058011374,0.730857418,0.346096067,-0.718643632,-1.13419454,5000,Free,"Correct, no change",0,4
2,1293,1578,71.87,68.83,580,460,-1,-1,50,50,1,52,50,2,1,1,7,TRUE,,908,2018,FALSE,FALSE,2,,764,2740,7259,29,52,52,Left,0.401628501,0.069389498,-0.180626883,-0.525305863,-0.718643632,-0.37387095,7000,Free,"Incorrect, no change",2,0
2,1856,1394,9.47,40.78,673,998,-1,-1,50,50,0,50,53,3,1,1,3,FALSE,,709,1000,TRUE,TRUE,2,,962,1305,7333,74,53,53,Right,-2.757420107,-2.541275125,-1.540580853,-1.825456085,0.180850715,0.866888997,3000,Free,"Incorrect, no change",4,1
2,1218,2146,69.13,58.17,448,1864,1,1,54,54,1,50,54,4,0,1,1,FALSE,,986,732,FALSE,FALSE,2,,740,2099,7496,163,50,50,Left,0.262913867,-0.045245455,-0.697457875,-1.019409299,1.080345063,-0.539158687,3000,Free,"Correct, no change",1,5
2,1395,1683,78.27,68.42,554,678,1,1,54,54,2,54,50,4,0,1,4,TRUE,,1012,2206,TRUE,TRUE,2,,746,1388,7669,173,50,50,Left,0.725633487,0.337149972,-0.200504998,-0.544309842,1.080345063,-0.149079627,7000,Free,"Correct, no change",1,4
2,818,1397,77.5,83,510,1081,1,1,50,50,1,50,47,3,0,1,5,TRUE,,636,3140,TRUE,TRUE,2,,942,1904,7848,179,47,47,Right,0.686651637,0.30493504,0.506380167,0.131490166,0.180850715,-1.420693285,7000,Free,"Correct, no change",1,3
2,1529,1754,41.17,84.1,559,468,1,1,50,50,2,50,47,3,0,1,0,TRUE,,822,1004,TRUE,TRUE,2,,850,1228,8010,162,47,47,Right,-1.152582913,-1.215024027,0.559711695,0.18247645,0.180850715,0.146234463,5000,Free,"Correct, no change",1,2
2,1132,1567,65.45,69.2,735,677,-1,1,50,52,0,50,52,2,1,1,3,FALSE,,787,948,TRUE,FALSE,2,,914,1186,8111,101,52,50,Right,0.076611,-0.199207727,-0.162688096,-0.508155932,-0.718643632,-0.728688625,3000,Free,Incorrect to correct,3,2
3,1996,1829,61.05,78.77,715,274,1,1,50,50,1,50,47,3,0,0,7,TRUE,,702,2208,TRUE,TRUE,2,,796,1542,8280,169,47,47,Right,-0.146142427,-0.383293054,0.301296199,-0.064575268,0.180850715,1.175426106,5000,Free,"Correct, no change",0,3
3,1526,1543,62.68,41.17,398,602,-1,-1,50,50,1,53,50,3,1,1,3,TRUE,,826,1364,FALSE,FALSE,2,,844,932,8327,47,53,53,Right,-0.063622408,-0.315097808,-1.521672402,-1.80737913,0.180850715,0.139622953,3000,Free,"Incorrect, no change",0,3
3,2305,1989,67.05,84.52,2060,1185,1,1,54,54,1,50,54,4,0,1,2,FALSE,,676,686,FALSE,FALSE,2,,932,1559,8502,175,50,50,Right,0.157612247,-0.132267609,0.580074642,0.20194394,1.080345063,1.856411582,3000,Free,"Correct, no change",1,4
3,1445,1526,92.9,96.9,847,1031,1,1,54,54,2,50,54,4,0,1,3,FALSE,,898,759,FALSE,FALSE,2,,649,1226,8696,194,50,50,Left,1.466288633,0.949233681,1.180296751,0.775771381,1.080345063,-0.038887803,3000,Free,"Correct, no change",1,1
3,1396,1632,39.27,69.38,401,485,1,1,53,53,1,50,53,3,0,1,4,FALSE,,948,1171,FALSE,FALSE,2,,785,806,8849,153,50,50,Left,-1.248771893,-1.294515417,-0.153961119,-0.499812722,0.180850715,-0.146875791,3000,Free,"Correct, no change",0,1
3,1324,1242,22.3,63.18,430,629,1,1,50,50,2,50,47,3,0,1,8,TRUE,,938,2109,TRUE,TRUE,2,,789,1714,8991,142,47,47,Left,-2.107891362,-2.00449905,-0.454557005,-0.787189954,0.180850715,-0.305552019,5000,Free,"Correct, no change",1,1
3,1700,1440,70.35,47.47,409,629,-1,-1,48,48,0,50,48,2,1,1,7,TRUE,,843,2180,FALSE,FALSE,2,,890,2089,9031,40,50,50,Right,0.324677317,0.005796386,-1.216228195,-1.515366781,-0.718643632,0.523090503,5000,Free,"Incorrect, no change",1,3
3,3272,1650,42.12,86.5,355,634,1,1,53,53,1,50,53,3,0,1,6,FALSE,,818,1650,FALSE,FALSE,2,,878,2027,9195,164,50,50,Right,-1.104488423,-1.175278331,0.676071393,0.293719249,0.180850715,3.987521473,5000,Free,"Correct, no change",1,3
3,1405,1686,64.03,66.9,278,434,1,1,50,50,2,47,50,3,0,2,11,FALSE,,738,2892,FALSE,FALSE,2,,902,2708,9360,165,47,47,Right,0.004722394,-0.258617083,-0.274199473,-0.614763615,0.180850715,-0.127041262,7000,Free,"Correct, no change",2,2
3,1257,1427,29.02,63.32,400,663,1,1,52,52,1,50,52,2,0,1,9,FALSE,,802,3100,FALSE,FALSE,2,,916,2522,9505,145,50,50,Right,-1.767686128,-1.723350552,-0.447769356,-0.780700791,-0.718643632,-0.453209064,7000,Free,"Correct, no change",1,6
3,1274,1319,69.98,71.8,3594,5797,1,-1,52,50,2,50,52,2,0,1,9,FALSE,,801,3422,FALSE,TRUE,2,,868,2408,9603,98,50,52,Right,0.305945779,-0.009683517,-0.036631757,-0.387642899,-0.718643632,-0.415743843,7000,Free,Correct to incorrect,2,4
3,1085,1364,96.93,95.57,653,803,1,1,50,50,1,49,50,1,0,1,4,FALSE,,1030,1168,FALSE,FALSE,2,,614,3553,9798,195,49,49,Left,1.670310522,1.117839105,1.115814085,0.71412433,-1.61813798,-0.832268941,7000,Free,"Correct, no change",0,3
3,1301,1056,41.13,73.37,616,674,-1,-1,50,50,1,50,51,1,1,1,6,FALSE,,774,2350,TRUE,TRUE,2,,916,1636,9840,42,51,51,Right,-1.154607944,-1.21669753,0.039486879,-0.314871567,-1.61813798,-0.356240258,5000,Free,"Incorrect, no change",2,7
3,1410,1630,70.18,83.28,307,389,-1,-1,50,50,0,52,50,2,1,1,3,TRUE,,1056,1186,FALSE,FALSE,2,,683,2006,9862,22,52,52,Left,0.316070935,-0.001316002,0.519955465,0.144468493,-0.718643632,-0.11602208,5000,Free,"Incorrect, no change",1,3
3,1215,1394,82.72,87.88,442,652,1,-1,53,50,1,53,50,3,0,1,6,TRUE,,688,2066,TRUE,FALSE,2,,922,1842,9959,97,50,53,Right,0.950918203,0.523327177,0.74297822,0.357683859,0.180850715,-0.545770196,5000,Free,Correct to incorrect,2,5
3,1462,1423,97.15,100.07,724,388,1,1,53,53,2,50,53,3,0,1,4,FALSE,,956,800,FALSE,FALSE,2,,610,1290,10157,198,50,50,Left,1.681448194,1.127043371,1.333988519,0.922704579,0.180850715,-0.001422582,3000,Free,"Correct, no change",0,1
3,1018,1389,73.48,71.3,656,736,1,1,52,52,1,52,50,2,0,2,5,TRUE,,618,1212,TRUE,TRUE,2,,1047,1206,10328,171,50,50,Right,0.483136005,0.136747993,-0.060873361,-0.410818482,-0.718643632,-0.979925986,3000,Free,"Correct, no change",1,1
3,1888,1433,14.93,49.57,496,824,-1,-1,48,48,1,50,48,2,1,1,6,TRUE,,615,2284,FALSE,FALSE,2,,966,1680,10395,67,50,50,Right,-2.481003353,-2.312841971,-1.114413459,-1.418029331,-0.718643632,0.937411764,5000,Free,"Incorrect, no change",2,4
3,2624,1355,54.47,68.97,810,425,1,1,53,53,1,53,50,3,0,1,4,TRUE,,786,1034,TRUE,TRUE,2,,908,1225,10556,161,50,50,Right,-0.479260053,-0.658584291,-0.173839234,-0.5188167,0.180850715,2.559435424,3000,Free,"Correct, no change",0,2
3,1661,1772,70.23,65.8,4817,872,1,1,53,53,2,50,53,3,0,1,10,FALSE,,1048,2374,FALSE,FALSE,2,,708,2270,10723,167,50,50,Left,0.318602224,0.000775877,-0.327531002,-0.665749898,0.180850715,0.43714088,7000,Free,"Correct, no change",0,1
3,1431,1739,49.18,79.43,670,864,1,1,52,52,1,50,52,2,0,1,5,FALSE,,888,2196,FALSE,FALSE,2,,802,2696,10886,163,50,50,Left,-0.747070424,-0.879905058,0.333295116,-0.033983498,-0.718643632,-0.069741514,7000,Free,"Correct, no change",1,5
4,1326,1463,56.6,67.28,392,359,-1,-1,48,48,1,50,48,2,1,2,10,TRUE,,1041,2752,FALSE,FALSE,2,,602,2838,10923,37,50,50,Left,-0.371427144,-0.569470258,-0.255775855,-0.597150172,-0.718643632,-0.301144346,7000,Free,"Incorrect, no change",1,6
4,1909,1517,63.38,48.3,408,403,-1,1,47,50,0,50,47,3,1,1,7,TRUE,,606,2015,FALSE,TRUE,2,,916,2150,11015,92,50,47,Right,-0.028184362,-0.285811506,-1.175987133,-1.476895312,0.180850715,0.983692331,5000,Free,Incorrect to correct,1,3
4,1114,1475,58.77,37.78,322,1187,1,-1,54,50,1,50,54,4,0,1,6,FALSE,,780,2262,FALSE,TRUE,2,,954,1704,11125,110,50,54,Right,-0.261569203,-0.478682722,-1.686030476,-1.964509584,1.080345063,-0.768357682,5000,Free,Correct to incorrect,1,7
4,1255,1524,92.18,83.75,461,462,1,1,50,50,2,46,50,4,0,1,6,FALSE,,714,1654,FALSE,FALSE,2,,944,2451,11312,187,46,46,Right,1.429838072,0.919110628,0.542742573,0.166253541,1.080345063,-0.457616737,5000,Free,"Correct, no change",1,1
4,1900,1660,56.77,74,971,432,1,1,50,50,1,47,50,3,0,1,4,FALSE,,914,1052,FALSE,FALSE,2,,803,1906,11477,165,47,47,Left,-0.362820761,-0.562357871,0.0700313,-0.285670332,0.180850715,0.963857802,5000,Free,"Correct, no change",0,2
4,1079,1521,88.08,98.53,619,716,1,1,53,53,2,53,50,3,0,1,8,TRUE,,616,2568,TRUE,TRUE,2,,930,2604,11670,193,50,50,Right,1.222272378,0.747576574,1.259324379,0.851323783,0.180850715,-0.84549196,7000,Free,"Correct, no change",1,0
4,1259,1393,87.87,82.8,502,476,-1,-1,48,48,0,50,48,2,1,1,3,TRUE,,890,946,FALSE,FALSE,2,,734,874,11684,14,50,50,Left,1.211640965,0.738790684,0.496683526,0.122219933,-0.718643632,-0.448801391,3000,Free,"Incorrect, no change",0,1
4,1021,1599,64.78,88.77,287,857,1,1,53,53,1,50,53,3,0,1,5,FALSE,,974,2089,FALSE,FALSE,2,,670,1574,11860,176,50,50,Left,0.042691728,-0.227238902,0.786128274,0.398936397,0.180850715,-0.973314476,5000,Free,"Correct, no change",0,4
4,1674,1232,61.3,65.95,1614,539,1,1,53,53,2,53,50,3,0,1,6,TRUE,,934,2506,TRUE,TRUE,2,,754,1672,12022,162,50,50,Left,-0.133485983,-0.37283366,-0.320258521,-0.658797223,0.180850715,0.465790755,7000,Free,"Correct, no change",1,2
4,1543,3002,61.83,75.22,684,680,-1,-1,48,48,0,48,50,2,1,2,5,FALSE,,576,1162,TRUE,TRUE,2,,1106,1356,12053,31,50,50,Right,-0.10665432,-0.350659746,0.129180813,-0.229121909,-0.718643632,0.177088174,3000,Free,"Incorrect, no change",1,2
4,1334,1381,55.67,26.27,844,626,1,1,50,50,1,50,47,3,0,1,4,TRUE,,791,806,TRUE,TRUE,2,,860,1286,12193,140,47,47,Right,-0.418509118,-0.608379202,-2.244072194,-2.498011511,0.180850715,-0.283513654,3000,Free,"Correct, no change",2,1
4,872,1467,86.5,87.83,390,267,1,1,53,53,2,50,53,3,0,1,5,FALSE,,594,1050,FALSE,FALSE,2,,932,1132,12379,186,50,50,Right,1.142283648,0.681473207,0.740554059,0.355366301,0.180850715,-1.301686114,3000,Free,"Correct, no change",0,2
4,1270,1631,60.65,74.18,336,436,1,1,52,52,1,52,50,2,0,1,5,TRUE,,892,2092,TRUE,TRUE,2,,746,1618,12546,167,50,50,Left,-0.166392739,-0.400028083,0.078758277,-0.277327122,-0.718643632,-0.424559189,7000,Free,"Correct, no change",2,3
4,1132,1345,85.08,94.73,501,733,1,1,50,50,2,50,48,2,0,1,9,TRUE,,560,2331,TRUE,TRUE,2,,950,2186,12735,189,48,48,Right,1.070395041,0.622063852,1.075088191,0.67518935,-0.718643632,-0.728688625,7000,Free,"Correct, no change",0,1
4,1437,2579,85.98,21.13,327,1256,-1,1,50,51,0,51,50,1,1,1,6,TRUE,,524,2803,FALSE,TRUE,2,,920,1650,12802,67,51,50,Right,1.115958243,0.659717669,-2.49327588,-2.736256507,-1.61813798,-0.056518495,5000,Free,Incorrect to correct,1,6
4,1315,1471,74.25,71.48,495,739,1,1,52,52,1,52,50,2,0,1,9,TRUE,,794,2566,TRUE,TRUE,2,,944,2518,12974,172,50,50,Right,0.522117855,0.168962925,-0.052146383,-0.402475272,-0.718643632,-0.325386547,7000,Free,"Correct, no change",0,4
4,1453,1323,62.67,81.5,353,786,1,1,50,50,2,48,50,2,0,2,8,FALSE,,540,2214,FALSE,FALSE,2,,1140,3254,13145,171,48,48,Right,-0.064128665,-0.315516183,0.433655356,0.061963417,-0.718643632,-0.021257111,7000,Free,"Correct, no change",1,8
4,1540,1796,68.58,79.02,360,692,-1,-1,49,49,0,50,49,1,1,1,4,TRUE,,848,902,FALSE,FALSE,2,,795,1221,13170,25,50,50,Left,0.235069688,-0.068256121,0.313417001,-0.052987476,-1.61813798,0.170476664,3000,Free,"Incorrect, no change",0,1
4,1327,1419,65.58,98.7,306,535,1,1,50,50,1,48,50,2,0,1,7,FALSE,,706,1527,FALSE,FALSE,2,,926,1608,13351,181,48,48,Right,0.083192351,-0.193768843,1.267566525,0.859203481,-0.718643632,-0.298940509,5000,Free,"Correct, no change",1,1
4,1333,1636,70.03,18.63,524,843,1,-1,52,50,2,52,50,2,0,1,5,TRUE,,894,1303,TRUE,FALSE,2,,798,1312,13476,125,50,52,Left,0.308477068,-0.007591638,-2.614483899,-2.852134424,-0.718643632,-0.28571749,3000,Free,Correct to incorrect,1,1
4,2821,1296,80.67,95.15,395,632,-1,-1,49,49,0,49,50,1,1,1,3,FALSE,,616,1272,TRUE,TRUE,2,,878,736,13487,11,50,50,Right,0.847135356,0.43756015,1.095451138,0.69465684,-1.61813798,2.993591214,3000,Free,"Incorrect, no change",0,1
5,1266,1475,71.17,79,610,1024,1,1,52,52,1,50,52,2,0,1,10,FALSE,,968,2188,FALSE,FALSE,2,,760,3473,13661,174,50,50,Left,0.366190456,0.040103196,0.312447337,-0.0539145,-0.718643632,-0.433374535,7000,Free,"Correct, no change",0,1
5,1344,1328,68.6,82.02,717,657,1,1,52,52,2,52,50,2,0,1,5,TRUE,,984,1818,TRUE,TRUE,2,,769,1891,13836,175,50,50,Left,0.236082204,-0.067419369,0.458866624,0.086066023,-0.718643632,-0.261475289,5000,Free,"Correct, no change",0,2
5,853,1362,87.53,89.12,378,383,1,1,50,50,1,49,50,1,0,1,4,FALSE,,590,1314,FALSE,FALSE,2,,890,822,14023,187,49,49,Right,1.1944282,0.724565909,0.803097397,0.415159306,-1.61813798,-1.343559007,3000,Free,"Correct, no change",1,2
5,1373,1491,80.17,86.73,398,478,-1,-1,50,50,1,51,50,1,1,1,6,TRUE,,682,2474,FALSE,FALSE,2,,902,2010,14038,15,51,51,Right,0.821822467,0.416641363,0.687222531,0.304380018,-1.61813798,-0.19756403,7000,Free,"Incorrect, no change",0,0
5,1673,1404,55.63,74.87,360,1066,1,1,50,50,1,50,48,2,0,1,7,TRUE,,816,2554,TRUE,TRUE,2,,932,2203,14202,164,48,48,Right,-0.420534149,-0.610052705,0.11221169,-0.245344818,-0.718643632,0.463586918,7000,Free,"Correct, no change",0,5
5,1373,1323,48.63,70.35,360,376,-1,1,48,50,1,48,50,2,1,1,7,FALSE,,826,2491,TRUE,FALSE,2,,930,1974,14312,110,50,48,Right,-0.774914602,-0.902915724,-0.106932408,-0.45485209,-0.718643632,-0.19756403,5000,Free,Incorrect to correct,0,4
5,1532,1546,54.48,21.23,3442,1170,1,-1,53,50,1,53,50,3,0,1,2,TRUE,,819,864,TRUE,FALSE,2,,952,1238,14428,116,50,53,Right,-0.478753795,-0.658165915,-2.488427559,-2.731621391,0.180850715,0.152845972,3000,Free,Correct to incorrect,0,1
5,1573,1773,54.62,64.53,471,3128,1,1,53,53,2,50,53,3,0,1,8,FALSE,,932,2396,FALSE,FALSE,2,,759,3468,14587,159,50,50,Left,-0.471666186,-0.652308655,-0.389104675,-0.72461588,0.180850715,0.243203269,7000,Free,"Correct, no change",0,3
5,3060,1314,40.7,81.57,1949,658,1,1,52,52,1,52,50,2,0,1,5,TRUE,,956,2403,TRUE,TRUE,2,,762,1642,14747,160,50,50,Left,-1.176377029,-1.234687686,0.43704918,0.065207998,-0.718643632,3.520308136,5000,Free,"Correct, no change",0,4
5,1172,2861,11.32,51.83,776,1719,-1,1,48,50,1,50,48,2,1,1,11,TRUE,,936,3226,FALSE,TRUE,2,,731,2453,14866,119,50,48,Left,-2.663762415,-2.463875613,-1.00484141,-1.313275695,-0.718643632,-0.640535166,7000,Free,Incorrect to correct,2,6
5,3059,1550,50.4,55.35,2722,3140,-1,-1,47,47,0,50,47,3,1,1,7,TRUE,,651,2326,FALSE,FALSE,2,,1026,1925,14912,46,50,50,Right,-0.685306973,-0.828863218,-0.83418052,-1.150119588,0.180850715,3.518104299,5000,Free,"Incorrect, no change",2,5
5,1335,2223,42.22,55.27,962,3603,1,1,54,54,1,50,54,4,0,1,10,FALSE,,912,2646,FALSE,FALSE,2,,774,2972,15060,148,50,50,Left,-1.099425845,-1.171094574,-0.838059177,-1.153827682,1.080345063,-0.281309817,7000,Free,"Correct, no change",1,2
5,1389,1462,49.18,74.2,750,390,1,1,54,54,2,54,50,4,0,1,5,TRUE,,952,1160,TRUE,TRUE,2,,774,1376,15221,161,50,50,Left,-0.747070424,-0.879905058,0.079727941,-0.276400099,1.080345063,-0.162302646,3000,Free,"Correct, no change",1,2
5,1860,1656,29.33,11.2,1911,2837,1,1,50,50,1,50,47,3,0,1,6,TRUE,,964,2422,TRUE,TRUE,2,,702,1594,15340,119,47,47,Left,-1.751992136,-1.710380904,-2.974714131,-3.196523591,0.180850715,0.875704342,5000,Free,"Correct, no change",2,5
5,1241,2437,92.55,99.17,844,722,1,1,50,50,2,50,47,3,0,1,5,TRUE,,554,1108,TRUE,TRUE,2,,960,1214,15535,195,47,47,Right,1.44856961,0.934590531,1.290353632,0.880988529,0.180850715,-0.488470448,3000,Free,"Correct, no change",1,3
5,786,1385,85.43,94.18,1994,2464,-1,-1,48,48,0,50,48,2,1,1,4,TRUE,,924,862,FALSE,FALSE,2,,682,1877,15544,9,50,50,Left,1.088114064,0.636707003,1.048422427,0.649696208,-0.718643632,-1.491216053,3000,Free,"Incorrect, no change",1,1
5,1147,1103,58.28,54.27,416,447,1,1,50,50,1,50,47,3,0,1,7,TRUE,,650,2380,TRUE,TRUE,2,,910,1886,15700,156,47,47,Right,-0.286375835,-0.499183134,-0.886542384,-1.200178848,0.180850715,-0.695631078,5000,Free,"Correct, no change",1,2
5,1174,2987,22.3,22.62,572,2562,1,-1,50,47,2,47,50,3,0,1,7,FALSE,,819,2062,FALSE,TRUE,2,,924,1974,15799,99,47,50,Right,-2.107891362,-2.00449905,-2.421035901,-2.667193269,0.180850715,-0.636127493,5000,Free,Correct to incorrect,0,2
5,1269,1418,23.3,87.38,375,410,1,1,50,50,1,50,48,2,0,1,6,TRUE,,786,2738,TRUE,TRUE,2,,934,1797,15953,154,48,48,Right,-2.057265583,-1.962661476,0.718736616,0.334508276,-0.718643632,-0.426763026,7000,Free,"Correct, no change",2,2
5,1576,1316,69.2,69.62,356,496,1,1,50,50,2,50,48,2,0,1,7,TRUE,,904,2374,TRUE,TRUE,2,,757,2671,16121,168,48,48,Left,0.266457671,-0.042316825,-0.142325149,-0.488688442,-0.718643632,0.249814778,7000,Free,"Correct, no change",1,6
5,1421,2360,14.97,82.2,705,503,-1,-1,49,49,0,49,50,1,1,1,5,FALSE,,940,905,TRUE,TRUE,2,,734,1138,16171,50,50,50,Left,-2.478978322,-2.311168468,0.467593601,0.094409233,-1.61813798,-0.091779879,3000,Free,"Incorrect, no change",1,1
6,2722,1825,15,11.98,556,4175,-1,-1,48,48,0,50,48,2,1,1,4,TRUE,,815,910,FALSE,FALSE,2,,914,1597,16257,86,50,50,Right,-2.477459549,-2.309913341,-2.936897229,-3.160369681,-0.718643632,2.775411401,3000,Free,"Incorrect, no change",1,2
6,1311,1381,58.77,66.43,493,359,-1,-1,47,47,0,50,47,3,1,1,4,TRUE,,830,972,FALSE,FALSE,2,,882,1244,16293,36,50,50,Right,-0.261569203,-0.478682722,-0.296986581,-0.636548663,0.180850715,-0.334201893,3000,Free,"Incorrect, no change",1,0
6,1615,1526,83.05,93.42,410,2156,1,1,50,50,1,46,50,4,0,1,3,FALSE,,966,1872,FALSE,FALSE,2,,734,2556,16480,187,46,46,Left,0.96762471,0.537133577,1.011575189,0.614469322,1.080345063,0.335764401,7000,Free,"Correct, no change",2,4
6,1521,1239,70.7,78.4,404,655,1,1,50,50,2,46,50,4,0,1,4,FALSE,,956,1206,FALSE,FALSE,2,,776,1267,16654,174,46,46,Left,0.34239634,0.020439537,0.283357413,-0.0817252,1.080345063,0.128603771,3000,Free,"Correct, no change",0,0
6,1584,1410,20.85,20.35,409,1014,1,-1,53,50,1,53,50,3,0,1,4,TRUE,,821,1130,TRUE,FALSE,2,,922,1533,16753,99,50,53,Right,-2.181298742,-2.065163532,-2.531092782,-2.772410417,0.180850715,0.26744547,3000,Free,Correct to incorrect,0,3
6,1699,1623,73.85,86.88,402,1567,1,1,50,50,2,47,50,3,0,1,3,FALSE,,904,678,FALSE,FALSE,2,,772,1648,16932,179,47,47,Left,0.501867544,0.152227895,0.694495012,0.311332693,0.180850715,0.520886667,3000,Free,"Correct, no change",2,2
6,1053,1581,61.28,67.22,228,400,1,1,52,52,1,50,52,2,0,1,5,FALSE,,778,1434,FALSE,FALSE,2,,908,1073,17095,163,50,50,Right,-0.134498498,-0.373670411,-0.258684847,-0.599931242,-0.718643632,-0.902791708,3000,Free,"Correct, no change",1,1
6,1492,1162,71.45,77.35,405,984,-1,-1,48,48,1,48,50,2,1,1,6,FALSE,,554,2292,TRUE,TRUE,2,,938,1303,17120,25,50,50,Right,0.380365674,0.051817717,0.232450045,-0.130393925,-0.718643632,0.064692513,5000,Free,"Incorrect, no change",1,2
6,1312,2800,75.28,81.83,796,678,1,1,53,53,1,53,50,3,0,1,6,TRUE,,912,2489,TRUE,TRUE,2,,777,2090,17297,177,50,50,Left,0.574262408,0.212055626,0.449654814,0.077259302,0.180850715,-0.331998056,7000,Free,"Correct, no change",1,4
6,1283,2004,80.63,85.18,392,394,1,1,50,50,2,50,47,3,0,1,2,TRUE,,568,2737,TRUE,TRUE,2,,950,356,17479,182,47,47,Right,0.845110325,0.435886647,0.612073559,0.232535709,0.180850715,-0.395909315,5000,Free,"Correct, no change",0,4
6,840,1459,86.27,97.28,344,3321,1,1,50,50,1,48,50,2,0,1,6,FALSE,,488,1178,FALSE,FALSE,2,,954,2513,17670,191,48,48,Right,1.130639718,0.671850565,1.19872037,0.793384825,-0.718643632,-1.372208882,5000,Free,"Correct, no change",1,2
6,1065,1960,72.75,81.02,273,732,1,1,50,50,2,50,48,2,0,1,8,TRUE,,596,3045,TRUE,TRUE,2,,970,2478,17846,176,48,48,Right,0.446179187,0.106206563,0.410383416,0.039714857,-0.718643632,-0.876345671,7000,Free,"Correct, no change",0,3
6,1484,1818,67.18,80.75,316,598,1,1,50,50,1,49,50,1,0,1,5,FALSE,,728,1166,FALSE,FALSE,2,,962,4149,18019,173,49,49,Right,0.164193598,-0.126828724,0.39729295,0.027200042,-1.61813798,0.047061821,7000,Free,"Correct, no change",0,1
6,1603,1958,70.43,75.92,375,768,-1,-1,50,50,1,50,51,1,1,2,5,FALSE,,650,1668,TRUE,TRUE,2,,1023,1428,18045,26,51,51,Right,0.32872738,0.009143392,0.163119058,-0.196676093,-1.61813798,0.309318363,5000,Free,"Incorrect, no change",2,2
6,1426,1679,28.33,73.93,564,712,1,1,50,50,1,50,48,2,0,1,8,TRUE,,810,3177,TRUE,TRUE,2,,924,2359,18195,150,48,48,Right,-1.802617915,-1.752218478,0.066637475,-0.288914914,-0.718643632,-0.080760696,7000,Free,"Correct, no change",2,3
6,801,1608,53.48,73.08,522,1284,1,1,52,52,2,50,52,2,0,1,7,FALSE,,910,1370,FALSE,FALSE,2,,700,1001,18357,162,50,50,Left,-0.529379574,-0.700003489,0.025426749,-0.328313406,-0.718643632,-1.458158505,3000,Free,"Correct, no change",2,0
6,1596,1356,70.47,40.37,617,660,-1,-1,50,50,0,51,50,1,1,1,7,TRUE,,912,1758,FALSE,FALSE,2,,769,3265,18400,43,51,51,Left,0.330752411,0.010816894,-1.560458968,-1.844460063,-1.61813798,0.293891508,7000,Free,"Incorrect, no change",1,1
6,1499,1841,62.33,64.37,440,552,-1,1,48,50,0,50,48,2,1,1,7,TRUE,,782,2062,FALSE,TRUE,2,,919,1811,18500,100,50,48,Left,-0.08134143,-0.329740959,-0.396861988,-0.732032066,-0.718643632,0.080119368,7000,Free,Incorrect to correct,1,0
6,1344,1436,74.9,85.35,355,1957,1,1,53,53,1,50,53,3,0,1,7,FALSE,,946,1520,FALSE,FALSE,2,,758,2088,18679,179,50,50,Left,0.555024612,0.196157348,0.620315705,0.240415408,0.180850715,-0.261475289,5000,Free,"Correct, no change",0,1
6,1680,1837,57.87,45.28,408,710,1,1,50,50,2,47,50,3,0,1,8,FALSE,,850,1978,FALSE,FALSE,2,,805,2370,18829,150,47,47,Left,-0.307132404,-0.516336539,-1.322406419,-1.616875835,0.180850715,0.479013773,5000,Free,"Correct, no change",1,4
6,1046,1456,70.7,86.45,453,354,1,1,50,50,1,48,50,2,0,1,4,FALSE,,630,991,FALSE,FALSE,2,,906,1077,19007,178,48,48,Right,0.34239634,0.020439537,0.673647233,0.291401691,-0.718643632,-0.918218564,3000,Free,"Correct, no change",1,1
7,960,1372,42.22,85.95,526,2188,1,1,52,52,2,50,52,2,0,1,5,FALSE,,862,1398,FALSE,FALSE,2,,799,1870,19170,163,50,50,Left,-1.099425845,-1.171094574,0.649405629,0.268226108,-0.718643632,-1.107748502,5000,Free,"Correct, no change",1,4
7,1596,1736,61.95,65.02,645,825,1,1,51,51,1,51,50,1,0,1,4,TRUE,,954,1703,TRUE,TRUE,2,,810,1392,19332,162,50,50,Left,-0.100579226,-0.345639237,-0.365347904,-0.701903808,-1.61813798,0.293891508,5000,Free,"Correct, no change",0,2
7,1089,1417,69.43,84.08,381,1227,-1,-1,49,49,1,50,49,1,1,1,5,TRUE,,918,1196,FALSE,FALSE,2,,730,1151,19354,22,50,50,Left,0.278101601,-0.032694183,0.558742031,0.181549426,-1.61813798,-0.823453595,3000,Free,"Incorrect, no change",1,2
7,1772,1774,70.2,81.9,395,378,-1,-1,50,50,0,52,50,2,1,1,6,TRUE,,930,2593,FALSE,FALSE,2,,815,2456,19377,23,52,52,Left,0.31708345,-0.000479251,0.453048639,0.080503883,-0.718643632,0.681766731,7000,Free,"Incorrect, no change",0,2
7,1502,1236,70.15,6.72,865,608,-1,1,47,50,0,50,47,3,1,1,5,TRUE,,819,1541,FALSE,TRUE,2,,914,1130,19444,67,50,47,Right,0.314552161,-0.002571129,-3.1919189,-3.404176817,0.180850715,0.086730877,3000,Free,Incorrect to correct,0,0
7,1728,1548,54.5,101.97,785,1274,1,1,54,54,1,54,50,4,0,1,8,TRUE,,812,2394,TRUE,TRUE,2,,878,2264,19621,177,50,50,Right,-0.47774128,-0.657329164,1.426106613,1.010771796,1.080345063,0.584797925,7000,Free,"Correct, no change",2,0
7,1343,1678,71.95,99.23,562,721,1,1,54,54,2,54,50,4,0,1,6,TRUE,,898,4274,TRUE,TRUE,2,,766,1626,19805,184,50,50,Left,0.405678564,0.072736504,1.293262625,0.883769599,1.080345063,-0.263679125,7000,Free,"Correct, no change",1,4
7,2482,1532,69.83,61.55,317,389,1,1,53,53,1,53,50,3,0,1,8,TRUE,,801,1896,TRUE,TRUE,2,,938,2023,19969,164,50,50,Right,0.298351912,-0.015959153,-0.533584634,-0.862742356,0.180850715,2.246490642,5000,Free,"Correct, no change",2,3
7,1342,1216,66.6,87.25,682,651,-1,-1,50,50,1,53,50,3,1,1,7,TRUE,,988,2119,FALSE,FALSE,2,,658,2104,19991,22,53,53,Left,0.134830646,-0.151094517,0.712433799,0.328482624,0.180850715,-0.265882962,5000,Free,"Incorrect, no change",1,2
7,1502,1393,81.72,99.1,583,578,1,1,54,54,1,50,54,4,0,1,4,FALSE,,934,924,FALSE,FALSE,2,,769,1539,20180,189,50,50,Left,0.900292424,0.481489603,1.286959808,0.877743948,1.080345063,0.086730877,3000,Free,"Correct, no change",1,1
7,1515,1965,63.43,81.12,379,1844,1,1,54,54,2,50,54,4,0,1,5,FALSE,,900,1108,FALSE,FALSE,2,,804,1282,20351,171,50,50,Left,-0.025653073,-0.283719627,0.415231737,0.044349973,1.080345063,0.115380752,3000,Free,"Correct, no change",1,3
7,1519,1473,94.67,84.17,595,386,1,1,50,50,1,47,50,3,0,1,6,FALSE,,914,1552,FALSE,FALSE,2,,578,2492,20540,189,47,47,Left,1.555896262,1.023286188,0.56310552,0.185721031,0.180850715,0.124196098,5000,Free,"Correct, no change",1,4
7,1505,1925,53.18,82.28,418,655,-1,-1,50,50,1,50,53,3,1,1,7,FALSE,,924,2382,TRUE,TRUE,2,,811,1687,20571,31,53,53,Left,-0.544567308,-0.712554762,0.471472258,0.098117326,0.180850715,0.093342387,7000,Free,"Incorrect, no change",0,1
7,1458,1478,99.03,88.98,1125,695,1,1,50,50,1,50,46,4,0,1,9,TRUE,,706,2361,TRUE,TRUE,2,,668,2287,20764,193,46,46,Right,1.776624658,1.205698011,0.796309748,0.408670142,1.080345063,-0.010237928,7000,Free,"Correct, no change",1,2
7,1303,1106,51.1,72.7,364,382,-1,1,46,50,1,50,46,4,1,2,6,TRUE,,882,2298,FALSE,TRUE,2,,1076,1604,20874,110,50,46,Left,-0.649868928,-0.799576916,0.00700313,-0.345926849,1.080345063,-0.351832585,5000,Free,Incorrect to correct,0,6
7,1198,2423,72.7,97.62,430,1067,1,1,50,50,1,50,45,5,0,1,5,TRUE,,588,3763,TRUE,TRUE,2,,952,1490,21058,184,45,45,Right,0.443647898,0.104114685,1.215204661,0.809144221,1.97983941,-0.583235417,7000,Free,"Correct, no change",0,8
7,1350,1624,73.15,98.37,457,753,1,1,50,50,2,45,50,5,0,2,7,FALSE,,734,1219,FALSE,FALSE,2,,973,2269,21243,185,45,45,Left,0.466429498,0.122941593,1.251567066,0.843907596,1.97983941,-0.24825227,5000,Free,"Correct, no change",0,0
7,1292,1795,19.87,75.08,360,599,-1,1,50,54,0,50,54,4,1,1,9,FALSE,,831,2124,TRUE,FALSE,2,,912,2479,21370,127,54,50,Right,-2.230912005,-2.106164355,0.122393164,-0.235611073,1.080345063,-0.376074786,7000,Free,Incorrect to correct,0,0
7,1452,1371,46.87,51.68,365,1465,-1,-1,45,45,0,50,45,5,1,1,7,TRUE,,808,1788,FALSE,FALSE,2,,878,2382,21420,50,50,50,Right,-0.864015973,-0.976549854,-1.012113891,-1.32022837,1.97983941,-0.023460947,5000,Free,"Incorrect, no change",0,3
7,1421,2139,90.77,95.8,531,1477,1,1,56,56,1,56,50,6,0,1,3,TRUE,,564,2085,TRUE,TRUE,2,,888,724,21612,192,50,50,Right,1.358455724,0.860119649,1.126965223,0.724785098,2.879333758,-0.091779879,3000,Free,"Correct, no change",1,1
7,1401,1678,36.9,70.68,516,939,1,1,56,56,2,56,50,6,0,1,5,TRUE,,906,1325,TRUE,TRUE,2,,772,1322,21765,153,50,50,Left,-1.368754989,-1.393670468,-0.090932949,-0.439556205,2.879333758,-0.135856608,3000,Free,"Correct, no change",2,1
8,1473,1802,41.57,90.05,411,578,1,1,55,55,1,55,50,5,0,1,4,TRUE,,908,1354,TRUE,TRUE,2,,776,1079,21930,165,50,50,Left,-1.132332602,-1.198288997,0.84818678,0.45826589,1.97983941,0.022819619,3000,Free,"Correct, no change",1,1
8,2029,1724,81.02,75.55,8456,3736,1,1,55,55,2,55,50,5,0,1,6,TRUE,,874,2162,TRUE,TRUE,2,,806,3205,22107,177,50,50,Left,0.864854379,0.452203301,0.145180271,-0.213826024,1.97983941,1.24815271,7000,Free,"Correct, no change",1,4
8,1433,3165,95.27,100.95,602,657,1,1,50,50,1,50,46,4,0,1,5,TRUE,,568,1304,TRUE,TRUE,2,,926,1299,22304,197,46,46,Right,1.586271729,1.048388732,1.376653742,0.963493606,1.080345063,-0.065333841,3000,Free,"Correct, no change",0,2
8,1597,1529,77.02,99.95,464,1078,1,1,50,50,1,46,50,4,0,1,4,FALSE,,824,3134,FALSE,FALSE,2,,916,1418,22491,187,46,46,Right,0.662351263,0.284853005,1.328170534,0.917142439,1.080345063,0.296095344,7000,Free,"Correct, no change",1,0
8,990,1440,79.9,90,323,414,1,1,50,50,2,50,46,4,0,1,7,TRUE,,988,1658,TRUE,TRUE,2,,781,1918,22675,184,46,46,Left,0.808153506,0.405345218,0.84576262,0.455948332,1.080345063,-1.041633408,5000,Free,"Correct, no change",0,1
8,1228,4237,34.6,82.02,574,1738,-1,1,47,50,0,50,47,3,1,2,6,TRUE,,744,3382,FALSE,TRUE,2,,911,1540,22798,123,50,47,Right,-1.485194281,-1.489896888,0.458866624,0.086066023,0.180850715,-0.517120322,7000,Free,Incorrect to correct,2,0
8,1359,1812,81.92,87.5,430,1060,1,1,50,50,1,46,50,4,0,1,5,FALSE,,956,1060,FALSE,FALSE,2,,682,2484,22981,183,46,46,Left,0.91041758,0.489857118,0.724554601,0.340070416,1.080345063,-0.228417741,5000,Free,"Correct, no change",0,2
8,1346,2573,79.28,100.07,512,5737,1,1,50,50,2,46,50,4,0,1,6,FALSE,,734,1250,FALSE,FALSE,2,,930,3603,23170,189,46,46,Right,0.776765523,0.379405922,1.333988519,0.922704579,1.080345063,-0.257067616,7000,Free,"Correct, no change",1,3
8,1178,1878,52.83,83.13,357,955,-1,-1,50,50,0,50,53,3,1,1,7,FALSE,,801,1960,TRUE,TRUE,2,,954,2056,23201,31,53,53,Right,-0.56228633,-0.727197913,0.512682984,0.137515818,0.180850715,-0.627312147,5000,Free,"Incorrect, no change",1,1
8,1304,2026,30.92,76.47,615,643,-1,1,50,54,0,54,50,4,1,1,7,TRUE,,928,2131,FALSE,TRUE,2,,795,2070,23323,122,54,50,Left,-1.671497148,-1.643859161,0.189784822,-0.171182951,1.080345063,-0.349628748,5000,Free,Incorrect to correct,1,2
8,1419,1855,62.23,96,392,1484,1,1,50,50,1,50,45,5,0,1,4,TRUE,,732,2898,TRUE,TRUE,2,,936,1007,23502,179,45,45,Right,-0.086404008,-0.333924716,1.136661864,0.734055331,1.97983941,-0.096187552,5000,Free,"Correct, no change",2,4
8,3556,2296,91.18,99.62,823,1306,1,1,50,50,2,50,45,5,0,1,5,TRUE,,920,4193,TRUE,TRUE,2,,662,1136,23696,194,45,45,Left,1.379212293,0.877273054,1.312171076,0.901846554,1.97983941,4.613411037,7000,Free,"Correct, no change",2,5
8,1067,2051,77.43,85.62,387,649,1,1,50,50,1,50,46,4,0,1,7,TRUE,,458,2897,TRUE,TRUE,2,,940,2342,23876,180,46,46,Right,0.683107832,0.30200641,0.633406171,0.252930223,1.080345063,-0.871937998,7000,Free,"Correct, no change",1,2
8,3370,1498,25.75,36.38,426,840,1,1,54,54,2,54,50,4,0,1,5,TRUE,,807,1089,TRUE,TRUE,2,,944,1540,24006,130,50,50,Right,-1.933232425,-1.860159419,-1.753906966,-2.029401218,1.080345063,4.203497449,3000,Free,"Correct, no change",2,1
8,1932,1830,34.57,75.7,414,493,-1,1,47,50,0,47,50,3,1,1,5,FALSE,,835,1265,TRUE,FALSE,2,,872,1360,24125,119,50,47,Right,-1.486713054,-1.491152016,0.152452752,-0.206873349,0.180850715,1.03438057,3000,Free,Incorrect to correct,2,3
8,1129,1460,71.78,96.13,553,716,1,1,54,54,1,50,54,4,0,1,5,FALSE,,892,1003,FALSE,FALSE,2,,702,3220,24308,183,50,50,Left,0.397072181,0.065624117,1.142964681,0.740080983,1.080345063,-0.735300135,5000,Free,"Correct, no change",2,6
8,861,1494,51.07,46.87,517,691,1,1,50,50,2,46,50,4,0,2,6,FALSE,,478,1260,FALSE,FALSE,2,,990,1277,24456,148,46,46,Right,-0.651387701,-0.800832043,-1.245318119,-1.543177481,1.080345063,-1.325928315,3000,Free,"Correct, no change",1,3
8,1857,1709,70.33,66.05,400,729,1,1,50,50,1,47,50,3,0,1,6,FALSE,,940,1202,FALSE,FALSE,2,,790,1198,24624,168,47,47,Left,0.323664802,0.004959634,-0.3154102,-0.654162106,0.180850715,0.869092833,3000,Free,"Correct, no change",1,0
8,1617,1982,24.32,58.43,395,1825,-1,1,47,50,1,50,47,3,1,1,8,TRUE,,948,2632,FALSE,TRUE,2,,786,1748,24740,116,50,47,Left,-2.005627289,-1.91998715,-0.684852241,-1.007357995,0.180850715,0.340172074,5000,Free,Incorrect to correct,1,2
8,1992,1504,53.4,26.03,719,572,1,-1,50,46,1,50,46,4,0,1,4,TRUE,,940,1582,TRUE,FALSE,2,,773,840,24852,112,46,50,Left,-0.533429636,-0.703350495,-2.255708163,-2.509135791,1.080345063,1.16661076,3000,Free,Correct to incorrect,2,2
8,768,1993,73.9,77.93,602,1440,1,1,50,50,2,46,50,4,0,1,4,FALSE,,944,824,FALSE,FALSE,2,,580,1512,25026,174,46,46,Left,0.504398833,0.154319774,0.260570305,-0.103510248,1.080345063,-1.530885109,3000,Free,"Correct, no change",0,3
9,1348,1716,75.17,88.72,773,879,1,1,50,50,1,50,47,3,0,1,7,TRUE,,526,3128,TRUE,TRUE,2,,902,2127,25207,181,47,47,Right,0.568693572,0.207453493,0.783704114,0.396618839,0.180850715,-0.252659943,7000,Free,"Correct, no change",0,4
0,2812,1275,82.65,80.97,435,291,-1,-1,40,40,0,50,40,10,1,1,3,TRUE,,900,1338,FALSE,FALSE,6,,740,2610,17,17,50,50,Left,-0.055786062,0.096895841,-0.892688359,-0.208006193,1.038416409,0.074380167,5000,Free,"Incorrect, no change",4,8
0,1623,1663,75.2,83.8,378,829,1,1,61,61,1,50,61,11,0,1,6,FALSE,,1164,3004,FALSE,FALSE,6,,468,2786,195,178,50,50,Right,-1.255445518,-0.803374753,-0.406634265,0.125876181,1.603055331,-0.775234188,7000,Free,"Correct, no change",4,8
0,2456,3584,80.73,84.57,513,810,1,1,61,61,2,61,50,11,0,2,7,TRUE,,833,3714,TRUE,TRUE,6,,758,1474,377,182,50,50,Left,-0.364960042,-0.135120205,-0.274386331,0.216720502,1.603055331,-0.180003946,7000,Free,"Correct, no change",3,15
0,1916,2188,77.28,80.55,488,876,1,1,50,50,1,50,40,10,0,3,5,TRUE,,778,1632,TRUE,TRUE,6,,723,1993,555,178,40,40,Left,-0.920507039,-0.552024037,-0.964823596,-0.257557641,1.038416409,-0.565867488,5000,Free,"Correct, no change",3,6
0,2315,1387,84.75,89.78,310,874,1,1,50,50,2,50,40,10,0,2,6,TRUE,,786,2142,TRUE,TRUE,6,,798,1662,741,186,40,40,Left,0.282372979,0.350663391,0.620434104,0.831394413,1.038416409,-0.280757204,5000,Free,"Correct, no change",1,4
0,3417,800,94.87,89.2,993,575,1,1,59,59,1,50,59,9,0,2,5,FALSE,,909,1550,FALSE,FALSE,6,,612,1422,932,191,50,50,Left,1.911977502,1.573581298,0.520818777,0.762966223,0.473777487,0.506690247,5000,Free,"Correct, no change",5,3
0,1505,2251,79.13,79.42,342,584,1,1,59,59,2,59,50,9,0,2,5,TRUE,,836,2560,TRUE,TRUE,6,,646,2520,1110,178,50,50,Right,-0.622605026,-0.32846691,-1.158901732,-0.390874632,0.473777487,-0.859552518,7000,Free,"Correct, no change",2,9
0,2009,5004,79.75,72.35,742,357,1,1,58,58,1,58,50,8,0,2,1,TRUE,,638,1194,TRUE,TRUE,6,,950,942,1285,175,50,50,Right,-0.522767595,-0.253545062,-2.373178215,-1.224990669,-0.090861436,-0.499413212,3000,Free,"Correct, no change",4,7
0,3418,1529,76.3,78.42,396,181,1,1,58,58,2,50,58,8,0,1,2,FALSE,,751,1336,FALSE,FALSE,6,,834,696,1462,177,50,50,Right,-1.078314591,-0.670448894,-1.330652295,-0.508854269,-0.090861436,0.507404809,3000,Free,"Correct, no change",1,6
0,7253,1984,80.4,90.55,2878,608,1,1,57,57,1,50,57,7,0,1,0,FALSE,,1141,944,FALSE,FALSE,6,,786,496,1647,185,50,50,Left,-0.41809932,-0.174997963,0.752682038,0.922238734,-0.655500358,3.247750521,3000,Free,"Correct, no change",4,3
0,5605,2322,72.4,83.13,276,392,-1,-1,50,50,1,50,57,7,1,1,1,FALSE,,1080,1206,TRUE,TRUE,6,,576,1109,1668,21,57,57,Right,-1.706324239,-1.141731486,-0.521707142,0.046829824,-0.655500358,2.070152155,3000,Free,"Incorrect, no change",2,5
0,1773,1899,84.02,81.15,621,670,1,1,50,50,1,42,50,8,0,1,4,FALSE,,578,2496,FALSE,FALSE,6,,1113,1432,1850,182,42,42,Left,0.164822456,0.262448957,-0.861773258,-0.186769859,-0.090861436,-0.668049871,7000,Free,"Correct, no change",3,9
0,2436,2369,87.1,95.53,449,1273,1,1,50,50,2,42,50,8,0,2,8,FALSE,,792,2741,FALSE,FALSE,6,,745,2698,2040,190,42,42,Right,0.660789049,0.634641363,1.607999843,1.509777329,-0.090861436,-0.194295188,7000,Free,"Correct, no change",2,6
0,2344,4786,85.03,80.4,215,665,1,1,50,50,1,43,50,7,0,1,5,FALSE,,808,1362,FALSE,FALSE,6,,765,1992,2222,182,43,43,Left,0.327460852,0.384499064,-0.99058618,-0.275254587,-0.655500358,-0.260034903,5000,Free,"Correct, no change",8,8
0,1507,5544,71.7,71.05,794,1179,-1,1,50,57,1,50,57,7,1,1,4,FALSE,,1057,1987,TRUE,FALSE,6,,478,1816,2321,99,57,50,Right,-1.81904392,-1.22632067,-2.596453947,-1.378364198,-0.655500358,-0.858123394,5000,Free,Incorrect to correct,1,8
0,2166,4186,78.32,89.07,403,314,1,1,58,58,1,50,58,8,0,1,9,FALSE,,908,1970,FALSE,FALSE,6,,646,3443,2504,183,50,50,Left,-0.753037799,-0.426348679,0.498491204,0.747628871,-0.090861436,-0.38722696,7000,Free,"Correct, no change",1,6
0,1546,3540,79.73,87.65,1035,380,1,1,50,50,2,42,50,8,0,2,10,FALSE,,925,1787,FALSE,FALSE,6,,620,1888,2686,182,42,42,Left,-0.525988157,-0.255961895,0.254605404,0.580097785,-0.090861436,-0.830255471,5000,Free,"Correct, no change",6,2
0,1687,1347,79.42,82.3,444,398,-1,1,43,50,0,50,43,7,1,2,10,TRUE,,824,3002,FALSE,TRUE,6,,774,2524,2787,101,50,43,Left,-0.575906873,-0.293422819,-0.66426011,-0.051093276,-0.655500358,-0.729502213,7000,Free,Incorrect to correct,2,6
0,4655,2222,74.68,86.45,234,517,-1,-1,50,50,0,50,54,4,1,1,5,FALSE,,946,1754,TRUE,TRUE,6,,640,2479,18,18,54,54,Right,-1.339180137,-0.866212432,0.048504728,0.43852222,-2.349417125,1.391318145,5000,Free,"Incorrect, no change",4,6
0,2285,3307,84.07,84.87,403,202,1,1,50,50,1,45,50,5,0,1,1,FALSE,,440,2122,FALSE,FALSE,6,,1087,225,202,184,45,45,Left,0.172873861,0.268491041,-0.222861162,0.252114393,-1.784778203,-0.302194068,3000,Free,"Correct, no change",1,3
0,2729,3546,80.43,73.35,397,232,-1,-1,50,50,1,55,50,5,1,1,4,TRUE,,462,1482,FALSE,FALSE,6,,1192,1207,224,22,55,55,Left,-0.413268477,-0.171372712,-2.201427652,-1.107011031,-1.784778203,0.015071511,3000,Free,"Incorrect, no change",3,3
0,2874,6445,84.68,88.42,516,908,1,1,50,50,1,44,50,6,0,1,7,FALSE,,926,1424,FALSE,FALSE,6,,755,2402,410,186,44,44,Left,0.271101011,0.342204472,0.386853338,0.670942106,-1.220139281,0.118683018,5000,Free,"Correct, no change",3,7
0,5901,3070,77.55,84.98,2049,212,-1,-1,50,50,1,56,50,6,1,2,3,TRUE,,744,958,FALSE,FALSE,6,,716,1181,428,18,56,56,Left,-0.877029448,-0.519396781,-0.2039686,0.265092153,-1.220139281,2.281662541,3000,Free,"Incorrect, no change",3,3
0,1481,1807,80.55,83.45,630,404,1,1,57,57,1,57,50,7,0,1,12,TRUE,,540,2810,TRUE,TRUE,6,,1066,2860,609,181,50,50,Left,-0.393945103,-0.156871709,-0.466746962,0.084583308,-0.655500358,-0.876702009,7000,Free,"Correct, no change",4,1
0,1691,2911,95.1,88.82,363,523,-1,1,50,57,1,57,50,7,1,3,6,TRUE,,656,2224,FALSE,TRUE,6,,652,2788,705,96,57,50,Left,1.949013968,1.601374886,0.455553563,0.718133961,-0.655500358,-0.726643964,7000,Free,Incorrect to correct,5,11
0,1945,3524,88,89.02,577,257,1,1,50,50,1,50,42,8,0,1,6,TRUE,,804,2154,TRUE,TRUE,6,,929,2017,893,188,42,42,Left,0.805714353,0.743398884,0.489903676,0.741729889,-0.090861436,-0.545145187,5000,Free,"Correct, no change",1,5
0,3138,1883,81.57,82.47,503,271,-1,1,42,50,1,50,42,8,1,1,4,TRUE,,950,1181,FALSE,TRUE,6,,785,1096,993,100,50,42,Left,-0.229696426,-0.033613185,-0.635062514,-0.031036737,-0.090861436,0.307327416,3000,Free,Incorrect to correct,1,4
0,1513,2632,82.75,80.62,325,310,1,1,50,50,1,41,50,9,0,1,6,FALSE,,786,1441,FALSE,FALSE,6,,850,2688,1174,181,41,41,Left,-0.03968325,0.10898001,-0.952801056,-0.249299067,0.473777487,-0.853836021,5000,Free,"Correct, no change",3,6
0,3065,1788,78.88,81.75,494,991,-1,1,41,50,1,41,50,9,1,3,4,FALSE,,616,826,TRUE,FALSE,6,,884,3254,1274,100,50,41,Right,-0.662862055,-0.358677332,-0.75872292,-0.115982076,0.473777487,0.255164382,5000,Free,Incorrect to correct,0,4
0,1529,1734,87.2,82.27,694,190,1,1,50,50,1,50,40,10,0,3,5,TRUE,,592,1202,TRUE,TRUE,6,,993,850,1458,184,40,40,Left,0.676891861,0.646725532,-0.669412627,-0.054632665,1.038416409,-0.842403027,3000,Free,"Correct, no change",2,2
0,4147,1629,86.78,92.85,168,430,1,1,60,60,2,60,50,10,0,3,4,TRUE,,800,1105,TRUE,TRUE,6,,658,920,1647,189,50,50,Left,0.609260053,0.595972022,1.147708333,1.193591901,1.038416409,1.028320591,3000,Free,"Correct, no change",3,4
0,4565,3534,84.65,92.57,413,1398,1,1,59,59,1,50,59,9,0,2,3,FALSE,,1062,780,FALSE,FALSE,6,,514,2603,1835,188,50,50,Left,0.266270168,0.338579222,1.099618176,1.160557602,0.473777487,1.327007555,5000,Free,"Correct, no change",1,1
0,1829,1841,87.5,92.22,227,228,1,1,50,50,2,41,50,9,0,3,1,FALSE,,628,444,FALSE,FALSE,6,,768,3960,2024,189,41,41,Left,0.725200295,0.682978039,1.039505478,1.119264729,0.473777487,-0.628034392,7000,Free,"Correct, no change",4,7
0,1704,4055,88.27,87.92,1120,2717,-1,1,50,58,0,50,58,8,1,1,4,FALSE,,742,1302,TRUE,FALSE,6,,886,3058,2122,98,58,50,Right,0.849191944,0.776026141,0.300978056,0.611952287,-0.090861436,-0.717354657,7000,Free,Incorrect to correct,3,11
0,3306,4254,81.42,82.03,540,380,-1,1,41,50,0,41,50,9,1,4,1,FALSE,,854,1078,TRUE,FALSE,6,,562,1037,2222,100,50,41,Right,-0.253850643,-0.051739439,-0.710632762,-0.082947778,0.473777487,0.427373852,3000,Free,Incorrect to correct,2,1
0,1536,3448,81.4,78.05,468,778,-1,1,50,60,0,60,50,10,1,1,4,TRUE,,662,3155,FALSE,TRUE,6,,959,2510,2320,98,60,50,Left,-0.257071205,-0.054156272,-1.394200004,-0.552506735,1.038416409,-0.837401092,7000,Free,Incorrect to correct,4,25
0,1910,6103,85.87,88.65,1503,372,1,1,50,50,1,50,39,11,0,2,7,TRUE,,436,1908,TRUE,TRUE,6,,973,1797,2506,186,39,39,Right,0.462724468,0.486006084,0.426355967,0.698077423,1.603055331,-0.570154861,5000,Free,"Correct, no change",2,8
0,2985,1483,86,80.13,582,298,1,1,50,50,2,50,39,11,0,1,6,TRUE,,930,2957,TRUE,TRUE,6,,730,1626,2689,183,39,39,Left,0.483658123,0.501715504,-1.036958832,-0.307109089,1.603055331,0.197999413,7000,Free,"Correct, no change",3,8
1,1761,1842,79.55,84.93,463,399,-1,1,40,50,0,40,50,10,1,1,9,FALSE,,804,2304,TRUE,FALSE,6,,806,3495,2791,102,50,40,Right,-0.554973218,-0.2777134,-0.212556128,0.259193171,1.038416409,-0.676624616,7000,Free,Incorrect to correct,3,8
1,2916,2751,74.75,91.17,404,584,1,1,50,50,1,50,39,11,0,1,3,TRUE,,715,1406,TRUE,TRUE,6,,772,738,2973,182,39,39,Right,-1.327908169,-0.857753514,0.859167387,0.995386109,1.603055331,0.148694627,3000,Free,"Correct, no change",3,3
1,2822,1402,85.85,84.88,398,643,1,1,50,50,2,50,39,11,0,1,8,TRUE,,760,3026,TRUE,TRUE,6,,768,2682,3157,184,39,39,Right,0.459503906,0.48358925,-0.221143656,0.253294189,1.603055331,0.081525788,7000,Free,"Correct, no change",3,6
1,3874,3503,78.78,87.63,280,410,1,1,50,50,1,40,50,10,0,2,3,FALSE,,904,1550,FALSE,FALSE,6,,674,2886,3339,182,40,40,Left,-0.678964866,-0.370761501,0.251170393,0.577738193,1.038416409,0.833245133,7000,Free,"Correct, no change",2,6
1,2681,1252,78.03,79.78,435,201,1,1,60,60,2,50,60,10,0,2,3,FALSE,,580,962,FALSE,FALSE,6,,894,2558,3517,178,50,50,Right,-0.799735953,-0.461392769,-1.097071529,-0.348401962,1.038416409,-0.01922747,5000,Free,"Correct, no change",2,4
1,4778,1647,81.22,79.72,478,164,1,1,50,50,1,50,41,9,0,3,5,TRUE,,852,2200,TRUE,TRUE,6,,715,1721,3696,179,41,41,Left,-0.286056266,-0.075907777,-1.107376563,-0.35548074,0.473777487,1.479209285,5000,Free,"Correct, no change",1,4
1,4888,7379,82.38,93.88,370,1839,-1,-1,41,41,1,41,50,9,1,2,9,FALSE,,458,1772,TRUE,TRUE,6,,1081,2031,3707,11,50,50,Right,-0.099263653,0.064268584,1.324611414,1.315110927,0.473777487,1.557811118,5000,Free,"Incorrect, no change",2,5
1,1880,1781,86.3,87.22,853,1942,-1,1,50,60,0,60,50,10,1,2,1,TRUE,,1003,2194,FALSE,TRUE,6,,614,3283,3806,99,60,50,Left,0.531966557,0.537968011,0.180752662,0.529366541,1.038416409,-0.591591725,7000,Free,Incorrect to correct,1,9
1,1540,1278,87.35,90.9,575,7943,1,1,61,61,1,61,50,11,0,3,10,TRUE,,650,2603,TRUE,TRUE,6,,739,2152,3994,188,50,50,Right,0.701046078,0.664851786,0.812794735,0.963531607,1.603055331,-0.834542844,7000,Free,"Correct, no change",3,9
1,1995,2054,88.2,89.47,1142,1711,1,1,61,61,2,61,50,11,0,2,12,TRUE,,1004,2956,TRUE,TRUE,6,,502,2724,4182,188,50,50,Left,0.837919976,0.767567223,0.567191429,0.794820726,1.603055331,-0.509417081,7000,Free,"Correct, no change",3,3
1,1859,2949,83.68,88.85,398,488,1,1,50,50,1,50,40,10,0,3,1,TRUE,,890,1880,TRUE,TRUE,6,,572,616,4367,185,40,40,Right,0.110072896,0.221362782,0.46070608,0.72167335,1.038416409,-0.606597529,3000,Free,"Correct, no change",3,7
1,1723,1888,96.2,93.9,1309,458,1,1,60,60,2,50,60,10,0,1,14,FALSE,,864,2102,FALSE,FALSE,6,,810,3565,4561,194,50,50,Left,2.126144895,1.734300746,1.328046425,1.31747052,1.038416409,-0.703777977,7000,Free,"Correct, no change",3,3
1,2533,1487,68.58,99.78,251,685,1,1,59,59,1,50,59,9,0,3,9,FALSE,,489,1828,FALSE,FALSE,6,,992,1484,4744,183,50,50,Right,-2.321451638,-1.603346744,2.337939737,2.011190789,0.473777487,-0.124982663,5000,Free,"Correct, no change",2,13
1,1894,2095,88.3,85.58,531,456,1,1,59,59,2,59,50,9,0,2,4,TRUE,,494,2547,TRUE,TRUE,6,,1027,1660,4930,186,50,50,Right,0.854022787,0.779651392,-0.100918262,0.335879936,0.473777487,-0.581587855,5000,Free,"Correct, no change",3,8
1,1732,1562,84.35,91.82,449,294,-1,-1,50,50,0,58,50,8,1,1,1,TRUE,,896,1082,FALSE,FALSE,6,,755,1442,4941,11,58,58,Left,0.217961733,0.302326714,0.970805253,1.072072874,-0.090861436,-0.697346918,3000,Free,"Incorrect, no change",3,3
1,3007,2093,86.87,90.3,842,328,-1,1,50,59,0,50,59,9,1,2,5,FALSE,,614,2154,TRUE,FALSE,6,,941,1846,5042,101,59,50,Right,0.623752583,0.606847774,0.709744397,0.892743825,0.473777487,0.213719779,5000,Free,Incorrect to correct,2,3
1,3512,5442,88.52,91.6,1024,175,1,1,50,50,1,40,50,10,0,1,5,FALSE,,696,1324,FALSE,FALSE,6,,941,3543,5231,189,40,40,Left,0.889448972,0.806236563,0.933020129,1.046117354,1.038416409,0.574573648,7000,Free,"Correct, no change",4,6
1,1709,3875,87.42,87.07,2471,836,1,1,60,60,2,60,50,10,0,1,3,TRUE,,826,1262,TRUE,TRUE,6,,794,3135,5417,186,50,50,Right,0.712318046,0.673310704,0.154990077,0.511669596,1.038416409,-0.713781846,5000,Free,"Correct, no change",3,7
